_id,task,label,difficulty,correct_answer,target_image,presented_images[0],presented_images[1],presented_images[2],presented_images[3],group_order,rt,stimulus,response,trial_type,trial_index,plugin_version,time_elapsed,ppt_id,correct,__v,response.age,response.gender,response.english_first,response.response,participant_response,final_response,correct_response,response.ppt_id_manual
685dd53bd28b67cd423fa2b6,comprehension,ant,0,4,images/ant.jpg,images/raspberry.jpg,images/mint.jpg,images/muffin.jpg,images/ant.jpg,CP,1376,"<h3>Which image shows: ""ant""?</h3>",3,html-button-response,2,2.1.0,15436,P1750979883535,true,0,,,,,,,,
685dd53cd28b67cd423fa2b8,comprehension,wheel,0,1,images/wheel.jpg,images/wheel.jpg,images/meat.jpg,images/bowl.jpg,images/fish.jpg,CP,834,"<h3>Which image shows: ""wheel""?</h3>",0,html-button-response,3,2.1.0,16273,P1750979883535,true,0,,,,,,,,
685dd573d28b67cd423fa2ba,,,,,,,,,,,4759,,,survey-html-form,0,2.1.0,4762,P1750979950400,,0,7,male,yes,,,,,
685dd590d28b67cd423fa2bc,,,,,,,,,,,5771,,,survey-html-form,0,2.1.0,5776,P1750979979118,,0,6,male,yes,,,,,
685dd5bdd28b67cd423fa2be,,,,,,,,,,,5875,,,survey-html-form,0,2.1.0,5881,P1750980023597,,0,5,male,yes,,,,,
685dd5ccd28b67cd423fa2c0,,,,,,,,,,,5641,,,survey-html-form,0,2.1.0,5646,P1750980039139,,0,7,male,yes,,,,,
685dd5d7d28b67cd423fa2c2,,,,,,,,,,,4992,,,survey-html-form,0,2.1.0,4996,P1750980050505,,0,5,male,yes,,,,,
685dd5dcd28b67cd423fa2c4,production,duck,0,,images/duck.jpg,,,,,PC,3727,,,survey-html-form,2,2.1.0,9655,P1750980050505,true,0,,,,duck,duck,duck,duck,
685dd5ddd28b67cd423fa2c6,production,ant,0,,images/ant.jpg,,,,,PC,1567,,,survey-html-form,3,2.1.0,11227,P1750980050505,true,0,,,,ant,ant,ant,ant,
685dd5e6d28b67cd423fa2c8,production,shower,1,,images/shower.jpg,,,,,PC,7548,,,survey-html-form,5,2.1.0,20174,P1750980050505,true,0,,,,shower,shower,shower,shower,
685dd5ecd28b67cd423fa2ca,production,squirrel,1,,images/squirrel.jpg,,,,,PC,6267,,,survey-html-form,6,2.1.0,26445,P1750980050505,true,0,,,,squirrel,squirrel,squirrel,squirrel,
685dd5eed28b67cd423fa2cc,production,sunflower,1,,images/sunflower.jpg,,,,,PC,1918,,,survey-html-form,7,2.1.0,28368,P1750980050505,true,0,,,,sunflower,sunflower,sunflower,sunflower,
685dd5f0d28b67cd423fa2ce,production,fan,1,,images/fan.jpg,,,,,PC,1549,,,survey-html-form,8,2.1.0,29921,P1750980050505,true,0,,,,fan,fan,fan,fan,
685dd5f8d28b67cd423fa2d0,production,footbath,1,,images/footbath.jpg,,,,,PC,7796,,,survey-html-form,9,2.1.0,37722,P1750980050505,true,0,,,,bowl/footbath,bowl/footbath,footbath,footbath,
685dd5f9d28b67cd423fa2d2,production,turtle,1,,images/turtle.jpg,,,,,PC,1678,,,survey-html-form,10,2.1.0,39404,P1750980050505,true,0,,,,turtle,turtle,turtle,turtle,
685dd5fbd28b67cd423fa2d4,production,cake,1,,images/cake.jpg,,,,,PC,1511,,,survey-html-form,11,2.1.0,40919,P1750980050505,true,0,,,,cake,cake,cake,cake,
685dd5fdd28b67cd423fa2d6,production,acorn,1,,images/acorn.jpg,,,,,PC,1580,,,survey-html-form,12,2.1.0,42503,P1750980050505,true,0,,,,acorn,acorn,acorn,acorn,
685dd5fed28b67cd423fa2d8,production,fox,1,,images/fox.jpg,,,,,PC,1414,,,survey-html-form,13,2.1.0,43921,P1750980050505,true,0,,,,fox,fox,fox,fox,
685dd600d28b67cd423fa2da,production,squash,1,,images/squash.jpg,,,,,PC,2209,,,survey-html-form,14,2.1.0,46134,P1750980050505,true,0,,,,squash,squash,squash,squash,
685dd603d28b67cd423fa2dc,production,ship,1,,images/ship.jpg,,,,,PC,2898,,,survey-html-form,15,2.1.0,49036,P1750980050505,true,0,,,,ship,ship,ship,ship,
685dd605d28b67cd423fa2de,production,carrot,1,,images/carrot.jpg,,,,,PC,1819,,,survey-html-form,16,2.1.0,50859,P1750980050505,true,0,,,,carrot,carrot,carrot,carrot,
685dd609d28b67cd423fa2e0,production,blender,1,,images/blender.jpg,,,,,PC,4482,,,survey-html-form,17,2.1.0,55347,P1750980050505,true,0,,,,blender,blender,blender,blender,
685dd60bd28b67cd423fa2e2,production,rice,1,,images/rice.jpg,,,,,PC,1502,,,survey-html-form,18,2.1.0,56853,P1750980050505,true,0,,,,rice,rice,rice,rice,
685dd60dd28b67cd423fa2e4,production,teabag,2,,images/teabag.jpg,,,,,PC,1996,,,survey-html-form,19,2.1.0,58853,P1750980050505,true,0,,,,teabag,teabag,teabag,teabag,
685dd60fd28b67cd423fa2e6,production,oatmeal,2,,images/oatmeal.jpg,,,,,PC,2084,,,survey-html-form,20,2.1.0,60941,P1750980050505,true,0,,,,oatmeal,oatmeal,oatmeal,oatmeal,
685dd611d28b67cd423fa2e8,production,koala,2,,images/koala.jpg,,,,,PC,1695,,,survey-html-form,21,2.1.0,62639,P1750980050505,false,0,,,,a,a,a,koala,
685dd611d28b67cd423fa2ea,production,treasure,2,,images/treasure.jpg,,,,,PC,200,,,survey-html-form,22,2.1.0,62842,P1750980050505,false,0,,,,a,a,a,treasure,
685dd611d28b67cd423fa2ec,production,ski,2,,images/ski.jpg,,,,,PC,235,,,survey-html-form,23,2.1.0,63078,P1750980050505,false,0,,,,a,a,a,ski,
685dd611d28b67cd423fa2ee,production,net,2,,images/net.jpg,,,,,PC,266,,,survey-html-form,24,2.1.0,63346,P1750980050505,false,0,,,,a,a,a,net,
685dd612d28b67cd423fa2f0,production,trumpet,2,,images/trumpet.jpg,,,,,PC,491,,,survey-html-form,25,2.1.0,63840,P1750980050505,false,0,,,,a,a,a,trumpet,
685dd612d28b67cd423fa2f2,production,waterwheel,2,,images/waterwheel.jpg,,,,,PC,615,,,survey-html-form,26,2.1.0,64458,P1750980050505,false,0,,,,a,a,a,waterwheel,
685dd618d28b67cd423fa2f4,comprehension,wheel,0,2,images/wheel.jpg,images/bowl.jpg,images/wheel.jpg,images/meat.jpg,images/fish.jpg,PC,1248,"<h3>Which image shows: ""wheel""?</h3>",1,html-button-response,63,2.1.0,69753,P1750980050505,true,0,,,,,,,,
686d5fe9d749baecad1a7907,,,,,,,,,,,38108,,,survey-html-form,1,2.1.0,41486,P1751998399439,,0,4,male,yes,,,,,test
686d603dd749baecad1a7909,comprehension,ball,0,4,images/ball.jpg,images/peach.jpg,images/snack.jpg,images/pen.jpg,images/ball.jpg,CP,36628,"<h3>Which image shows: ""ball""?</h3>",3,html-button-response,3,2.1.0,126124,P1751998399439,true,0,,,,,,,,
686d6041d749baecad1a790b,comprehension,duck,0,4,images/duck.jpg,images/snake.jpg,images/ladder.jpg,images/tongue.jpg,images/duck.jpg,CP,3391,"<h3>Which image shows: ""duck""?</h3>",3,html-button-response,4,2.1.0,129517,P1751998399439,true,0,,,,,,,,
686d604fd749baecad1a790d,comprehension,fox,1,4,images/fox.jpg,images/reindeer.jpg,images/harmonica.jpg,images/wolf.jpg,images/fox.jpg,CP,10723,"<h3>Which image shows: ""fox""?</h3>",3,html-button-response,6,2.1.0,143536,P1751998399439,true,0,,,,,,,,
686d6050d749baecad1a790f,comprehension,otter,1,4,images/otter.jpg,images/goose.jpg,images/tablecloth.jpg,images/beaver.jpg,images/otter.jpg,CP,1018,"<h3>Which image shows: ""otter""?</h3>",3,html-button-response,7,2.1.0,144556,P1751998399439,true,0,,,,,,,,
686d6051d749baecad1a7911,comprehension,squirrel,1,2,images/squirrel.jpg,images/monkey.jpg,images/squirrel.jpg,images/eagle.jpg,images/shorts.jpg,CP,1011,"<h3>Which image shows: ""squirrel""?</h3>",1,html-button-response,8,2.1.0,145568,P1751998399439,true,0,,,,,,,,
686d6052d749baecad1a7913,comprehension,cake,1,3,images/cake.jpg,images/refrigerator.jpg,images/battery.jpg,images/cake.jpg,images/dessert.jpg,CP,985,"<h3>Which image shows: ""cake""?</h3>",2,html-button-response,9,2.1.0,146556,P1751998399439,true,0,,,,,,,,
686d6053d749baecad1a7915,comprehension,shower,1,2,images/shower.jpg,images/toe.jpg,images/shower.jpg,images/cantaloupe.jpg,images/soap.jpg,CP,902,"<h3>Which image shows: ""shower""?</h3>",1,html-button-response,10,2.1.0,147461,P1751998399439,true,0,,,,,,,,
686d6055d749baecad1a7917,comprehension,freezer,1,4,images/freezer.jpg,images/cooler.jpg,images/nest.jpg,images/binoculars.jpg,images/freezer.jpg,CP,1926,"<h3>Which image shows: ""freezer""?</h3>",3,html-button-response,11,2.1.0,149391,P1751998399439,true,0,,,,,,,,
686d6056d749baecad1a7919,comprehension,sink,1,3,images/sink.jpg,images/stair.jpg,images/knitting.jpg,images/sink.jpg,images/toilet.jpg,CP,967,"<h3>Which image shows: ""sink""?</h3>",2,html-button-response,12,2.1.0,150361,P1751998399439,true,0,,,,,,,,
686d605bd749baecad1a791b,comprehension,pie,1,3,images/pie.jpg,images/pizza.jpg,images/sweater.jpg,images/pie.jpg,images/flashlight.jpg,CP,5103,"<h3>Which image shows: ""pie""?</h3>",2,html-button-response,13,2.1.0,155467,P1751998399439,true,0,,,,,,,,
686d605cd749baecad1a791d,comprehension,sprinkler,1,3,images/sprinkler.jpg,images/flower.jpg,images/sparkler.jpg,images/sprinkler.jpg,images/charcoal.jpg,CP,1107,"<h3>Which image shows: ""sprinkler""?</h3>",2,html-button-response,14,2.1.0,156576,P1751998399439,true,0,,,,,,,,
686d605ed749baecad1a791f,comprehension,lollipop,1,4,images/lollipop.jpg,images/crumb.jpg,images/doorbell.jpg,images/candy.jpg,images/lollipop.jpg,CP,2578,"<h3>Which image shows: ""lollipop""?</h3>",3,html-button-response,15,2.1.0,159156,P1751998399439,true,0,,,,,,,,
686d605fd749baecad1a7921,comprehension,carrot,1,2,images/carrot.jpg,images/phone.jpg,images/carrot.jpg,images/vegetable.jpg,images/bathtub.jpg,CP,834,"<h3>Which image shows: ""carrot""?</h3>",1,html-button-response,16,2.1.0,159993,P1751998399439,true,0,,,,,,,,
686d6062d749baecad1a7923,comprehension,cheese,1,4,images/cheese.jpg,images/hippopotamus.jpg,images/butter.jpg,images/mud.jpg,images/cheese.jpg,CP,3304,"<h3>Which image shows: ""cheese""?</h3>",3,html-button-response,17,2.1.0,163300,P1751998399439,true,0,,,,,,,,
686d6064d749baecad1a7925,comprehension,hamster,1,1,images/hamster.jpg,images/hamster.jpg,images/skirt.jpg,images/tadpole.jpg,images/rabbit.jpg,CP,1073,"<h3>Which image shows: ""hamster""?</h3>",0,html-button-response,18,2.1.0,164376,P1751998399439,true,0,,,,,,,,
686d6065d749baecad1a7927,comprehension,carousel,2,2,images/carousel.jpg,images/melon.jpg,images/carousel.jpg,images/dish.jpg,images/carriage.jpg,CP,1010,"<h3>Which image shows: ""carousel""?</h3>",1,html-button-response,19,2.1.0,165390,P1751998399439,true,0,,,,,,,,
686d6066d749baecad1a7929,comprehension,acorn,2,4,images/acorn.jpg,images/clothesline.jpg,images/coconut.jpg,images/key.jpg,images/acorn.jpg,CP,1156,"<h3>Which image shows: ""acorn""?</h3>",3,html-button-response,20,2.1.0,166548,P1751998399439,true,0,,,,,,,,
686d6069d749baecad1a792b,comprehension,teabag,2,2,images/teabag.jpg,images/braid.jpg,images/teabag.jpg,images/fingerprint.jpg,images/tea.jpg,CP,3168,"<h3>Which image shows: ""teabag""?</h3>",1,html-button-response,21,2.1.0,169719,P1751998399439,true,0,,,,,,,,
686d606bd749baecad1a792d,comprehension,sunflower,2,2,images/sunflower.jpg,images/pineapple.jpg,images/sunflower.jpg,images/pinball.jpg,images/rim.jpg,CP,1730,"<h3>Which image shows: ""sunflower""?</h3>",1,html-button-response,22,2.1.0,171452,P1751998399439,true,0,,,,,,,,
686d606cd749baecad1a792f,comprehension,fan,2,3,images/fan.jpg,images/album.jpg,images/boulder.jpg,images/fan.jpg,images/chipmunk.jpg,CP,1128,"<h3>Which image shows: ""fan""?</h3>",2,html-button-response,23,2.1.0,172582,P1751998399439,true,0,,,,,,,,
686d606dd749baecad1a7931,comprehension,cornbread,2,2,images/cornbread.jpg,images/organ.jpg,images/cornbread.jpg,images/corn.jpg,images/wreath.jpg,CP,931,"<h3>Which image shows: ""cornbread""?</h3>",1,html-button-response,24,2.1.0,173514,P1751998399439,true,0,,,,,,,,
686d606ed749baecad1a7933,comprehension,pump,2,2,images/pump.jpg,images/plug.jpg,images/pump.jpg,images/coat.jpg,images/scarf.jpg,CP,923,"<h3>Which image shows: ""pump""?</h3>",1,html-button-response,25,2.1.0,174441,P1751998399439,true,0,,,,,,,,
686d606fd749baecad1a7935,comprehension,silverware,2,1,images/silverware.jpg,images/silverware.jpg,images/trophy.jpg,images/eggnog.jpg,images/garlic.jpg,CP,1139,"<h3>Which image shows: ""silverware""?</h3>",0,html-button-response,26,2.1.0,175582,P1751998399439,true,0,,,,,,,,
686d6098d749baecad1a7937,comprehension,pitcher,2,2,images/pitcher.jpg,images/medal.jpg,images/pitcher.jpg,images/batter.jpg,images/tumbleweed.jpg,CP,40818,"<h3>Which image shows: ""pitcher""?</h3>",3,html-button-response,27,2.1.0,216402,P1751998399439,false,0,,,,,,,,
686d6099d749baecad1a7939,comprehension,squash,2,3,images/squash.jpg,images/branch.jpg,images/gazelle.jpg,images/squash.jpg,images/pumpkin.jpg,CP,1382,"<h3>Which image shows: ""squash""?</h3>",1,html-button-response,28,2.1.0,217788,P1751998399439,false,0,,,,,,,,
686d609ad749baecad1a793b,comprehension,saddle,2,1,images/saddle.jpg,images/saddle.jpg,images/broccoli.jpg,images/figurine.jpg,images/handle.jpg,CP,819,"<h3>Which image shows: ""saddle""?</h3>",1,html-button-response,29,2.1.0,218610,P1751998399439,false,0,,,,,,,,
686d609bd749baecad1a793d,comprehension,cassette,2,3,images/cassette.jpg,images/tape.jpg,images/hammock.jpg,images/cassette.jpg,images/book.jpg,CP,861,"<h3>Which image shows: ""cassette""?</h3>",1,html-button-response,30,2.1.0,219473,P1751998399439,false,0,,,,,,,,
686d609bd749baecad1a793f,comprehension,koala,2,1,images/koala.jpg,images/koala.jpg,images/panda.jpg,images/bee.jpg,images/backscratcher.jpg,CP,658,"<h3>Which image shows: ""koala""?</h3>",1,html-button-response,31,2.1.0,220135,P1751998399439,false,0,,,,,,,,
686d609cd749baecad1a7941,comprehension,prune,3,4,images/prune.jpg,images/raisin.jpg,images/jukebox.jpg,images/headrest.jpg,images/prune.jpg,CP,710,"<h3>Which image shows: ""prune""?</h3>",1,html-button-response,32,2.1.0,220848,P1751998399439,false,0,,,,,,,,
686d609cd749baecad1a7943,comprehension,tuxedo,3,1,images/tuxedo.jpg,images/tuxedo.jpg,images/suit.jpg,images/moccasin.jpg,images/stroller.jpg,CP,,,,html-button-response,33,2.1.0,220850,P1751998399439,false,0,,,,,,,,
686d609cd749baecad1a7945,comprehension,tulip,3,4,images/tulip.jpg,images/rose.jpg,images/glove.jpg,images/hubcap.jpg,images/tulip.jpg,CP,,,,html-button-response,34,2.1.0,220851,P1751998399439,false,0,,,,,,,,
686d609cd749baecad1a794b,comprehension,gutter,3,1,images/gutter.jpg,images/gutter.jpg,images/almond.jpg,images/filter.jpg,images/porthole.jpg,CP,,,,html-button-response,37,2.1.0,220853,P1751998399439,false,0,,,,,,,,
686d609cd749baecad1a794d,comprehension,dumpling,3,4,images/dumpling.jpg,images/meatball.jpg,images/rocket.jpg,images/coyote.jpg,images/dumpling.jpg,CP,,,,html-button-response,38,2.1.0,220854,P1751998399439,false,0,,,,,,,,
686d609cd749baecad1a794f,comprehension,coaster,3,3,images/coaster.jpg,images/hummingbird.jpg,images/card.jpg,images/coaster.jpg,images/painting.jpg,CP,,,,html-button-response,39,2.1.0,220854,P1751998399439,false,0,,,,,,,,
686d609cd749baecad1a7951,comprehension,footbath,3,3,images/footbath.jpg,images/trough.jpg,images/rhinoceros.jpg,images/footbath.jpg,images/vest.jpg,CP,,,,html-button-response,40,2.1.0,220855,P1751998399439,false,0,,,,,,,,
686d609cd749baecad1a7953,comprehension,thermos,3,1,images/thermos.jpg,images/thermos.jpg,images/coral.jpg,images/firewood.jpg,images/oilcan.jpg,CP,,,,html-button-response,41,2.1.0,220856,P1751998399439,false,0,,,,,,,,
686d609cd749baecad1a7947,comprehension,sandbag,3,2,images/sandbag.jpg,images/valve.jpg,images/sandbag.jpg,images/octopus.jpg,images/sandpaper.jpg,CP,,,,html-button-response,35,2.1.0,220851,P1751998399439,false,0,,,,,,,,
686d609cd749baecad1a7949,comprehension,clothespin,3,2,images/clothespin.jpg,images/toothpick.jpg,images/clothespin.jpg,images/fondue.jpg,images/volleyball.jpg,CP,,,,html-button-response,36,2.1.0,220852,P1751998399439,false,0,,,,,,,,
686d609cd749baecad1a7957,comprehension,antenna,3,1,images/antenna.jpg,images/antenna.jpg,images/backgammon.jpg,images/pinecone.jpg,images/stem.jpg,CP,,,,html-button-response,43,2.1.0,220857,P1751998399439,false,0,,,,,,,,
686d609cd749baecad1a7959,comprehension,stump,3,1,images/stump.jpg,images/stump.jpg,images/bookshelf.jpg,images/log.jpg,images/showerhead.jpg,CP,,,,html-button-response,44,2.1.0,220858,P1751998399439,false,0,,,,,,,,
686d609cd749baecad1a795b,comprehension,mandolin,4,3,images/mandolin.jpg,images/mast.jpg,images/gourd.jpg,images/mandolin.jpg,images/seismograph.jpg,CP,,,,html-button-response,45,2.1.0,220860,P1751998399439,false,0,,,,,,,,
686d609cd749baecad1a795d,comprehension,turbine,4,1,images/turbine.jpg,images/turbine.jpg,images/tab.jpg,images/generator.jpg,images/pesto.jpg,CP,,,,html-button-response,46,2.1.0,220862,P1751998399439,false,0,,,,,,,,
686d609cd749baecad1a7955,comprehension,hedgehog,3,4,images/hedgehog.jpg,images/owl.jpg,images/dumbwaiter.jpg,images/iguana.jpg,images/hedgehog.jpg,CP,,,,html-button-response,42,2.1.0,220856,P1751998399439,false,0,,,,,,,,
686d609cd749baecad1a795f,comprehension,tapestry,4,1,images/tapestry.jpg,images/tapestry.jpg,images/backdrop.jpg,images/forklift.jpg,images/leggings.jpg,CP,,,,html-button-response,47,2.1.0,220863,P1751998399439,false,0,,,,,,,,
686d609cd749baecad1a7961,comprehension,sorbet,4,4,images/sorbet.jpg,images/palette.jpg,images/tamale.jpg,images/chive.jpg,images/sorbet.jpg,CP,,,,html-button-response,48,2.1.0,220864,P1751998399439,false,0,,,,,,,,
686d609cd749baecad1a7963,comprehension,hoe,4,3,images/hoe.jpg,images/dustpan.jpg,images/beaker.jpg,images/hoe.jpg,images/peg.jpg,CP,,,,html-button-response,49,2.1.0,220865,P1751998399439,false,0,,,,,,,,
686d609cd749baecad1a7965,comprehension,cymbal,4,1,images/cymbal.jpg,images/cymbal.jpg,images/ferry.jpg,images/mallet.jpg,images/kaleidoscope.jpg,CP,,,,html-button-response,50,2.1.0,220866,P1751998399439,false,0,,,,,,,,
686d609cd749baecad1a7967,comprehension,stretcher,4,4,images/stretcher.jpg,images/vase.jpg,images/thermostat.jpg,images/drill.jpg,images/stretcher.jpg,CP,,,,html-button-response,51,2.1.0,220867,P1751998399439,false,0,,,,,,,,
686d609cd749baecad1a7969,comprehension,taillight,4,1,images/taillight.jpg,images/taillight.jpg,images/sushi.jpg,images/bumper.jpg,images/luggage.jpg,CP,,,,html-button-response,52,2.1.0,220868,P1751998399439,false,0,,,,,,,,
686d609cd749baecad1a796b,comprehension,parsley,4,4,images/parsley.jpg,images/kayak.jpg,images/tiara.jpg,images/basil.jpg,images/parsley.jpg,CP,,,,html-button-response,53,2.1.0,220868,P1751998399439,false,0,,,,,,,,
686d609cd749baecad1a796d,comprehension,flan,4,3,images/flan.jpg,images/turnstile.jpg,images/fuse.jpg,images/flan.jpg,images/amplifier.jpg,CP,,,,html-button-response,54,2.1.0,220869,P1751998399439,false,0,,,,,,,,
686d609cd749baecad1a796f,comprehension,grate,4,2,images/grate.jpg,images/reel.jpg,images/grate.jpg,images/tuba.jpg,images/crate.jpg,CP,,,,html-button-response,55,2.1.0,220870,P1751998399439,false,0,,,,,,,,
686d609cd749baecad1a7971,comprehension,sauerkraut,4,3,images/sauerkraut.jpg,images/clove.jpg,images/dashboard.jpg,images/sauerkraut.jpg,images/potpourri.jpg,CP,,,,html-button-response,56,2.1.0,220870,P1751998399439,false,0,,,,,,,,
686d609cd749baecad1a7973,comprehension,bobsled,4,2,images/bobsled.jpg,images/sidecar.jpg,images/bobsled.jpg,images/cilantro.jpg,images/dip.jpg,CP,,,,html-button-response,57,2.1.0,220871,P1751998399439,false,0,,,,,,,,
686d60fbd749baecad1a7975,production,wheel,0,,images/wheel.jpg,,,,,CP,24368,,,survey-html-form,60,2.1.0,316275,P1751998399439,true,0,,,,wheel,wheel,wheel,wheel,
686d6267d749baecad1a7977,production,ant,0,,images/ant.jpg,,,,,CP,363013,,,survey-html-form,61,2.1.0,679293,P1751998399439,true,0,,,,leaf/ant,leaf/ant,ant,ant,
686d626ed749baecad1a7979,production,elbow,1,,images/elbow.jpg,,,,,CP,4981,,,survey-html-form,63,2.1.0,686866,P1751998399439,true,0,,,,elbow,elbow,elbow,elbow,
686d6270d749baecad1a797b,production,turkey,1,,images/turkey.jpg,,,,,CP,1517,,,survey-html-form,64,2.1.0,688386,P1751998399439,true,0,,,,turkey,turkey,turkey,turkey,
686d6272d749baecad1a797d,production,horn,1,,images/horn.jpg,,,,,CP,2029,,,survey-html-form,65,2.1.0,690416,P1751998399439,true,0,,,,horn,horn,horn,horn,
686d627ad749baecad1a797f,production,puddle,1,,images/puddle.jpg,,,,,CP,8263,,,survey-html-form,66,2.1.0,698681,P1751998399439,true,0,,,,puddle,puddle,puddle,puddle,
686d6286d749baecad1a7981,production,scoop,1,,images/scoop.jpg,,,,,CP,12567,,,survey-html-form,67,2.1.0,711250,P1751998399439,true,0,,,,scoop,scoop,scoop,scoop,
686d6288d749baecad1a7983,production,potato,1,,images/potato.jpg,,,,,CP,1524,,,survey-html-form,68,2.1.0,712780,P1751998399439,true,0,,,,potato,potato,potato,potato,
686d6291d749baecad1a7985,production,watermelon,1,,images/watermelon.jpg,,,,,CP,9515,,,survey-html-form,69,2.1.0,722298,P1751998399439,true,0,,,,watermelon,watermelon,watermelon,watermelon,
686d6294d749baecad1a7987,production,marshmallow,1,,images/marshmallow.jpg,,,,,CP,2950,,,survey-html-form,70,2.1.0,725252,P1751998399439,true,0,,,,marshmallow,marshmallow,marshmallow,marshmallow,
686d6298d749baecad1a7989,production,ship,1,,images/ship.jpg,,,,,CP,3430,,,survey-html-form,71,2.1.0,728686,P1751998399439,true,0,,,,ship,ship,ship,ship,
686d629dd749baecad1a798b,production,seagull,1,,images/seagull.jpg,,,,,CP,4924,,,survey-html-form,72,2.1.0,733613,P1751998399439,true,0,,,,seagull,seagull,seagull,seagull,
686d629ed749baecad1a798d,production,pajamas,1,,images/pajamas.jpg,,,,,CP,1679,,,survey-html-form,73,2.1.0,735293,P1751998399439,false,0,,,,shirt,shirt,shirt,pajamas,
686d62a0d749baecad1a798f,production,oatmeal,1,,images/oatmeal.jpg,,,,,CP,2008,,,survey-html-form,74,2.1.0,737304,P1751998399439,true,0,,,,oatmeal,oatmeal,oatmeal,oatmeal,
686d62a2d749baecad1a7991,production,rice,1,,images/rice.jpg,,,,,CP,1163,,,survey-html-form,75,2.1.0,738470,P1751998399439,true,0,,,,rice,rice,rice,rice,
686d62a9d749baecad1a7993,production,turtle,1,,images/turtle.jpg,,,,,CP,7821,,,survey-html-form,76,2.1.0,746294,P1751998399439,true,0,,,,turtle,turtle,turtle,turtle,
686d62b5d749baecad1a7995,production,treasure,2,,images/treasure.jpg,,,,,CP,11507,,,survey-html-form,77,2.1.0,757804,P1751998399439,true,0,,,,treasure,treasure,treasure,treasure,
686d62bbd749baecad1a7997,production,ski,2,,images/ski.jpg,,,,,CP,6462,,,survey-html-form,78,2.1.0,764269,P1751998399439,true,0,,,,ski,ski,ski,ski,
686d62c4d749baecad1a7999,production,candlestick,2,,images/candlestick.jpg,,,,,CP,8480,,,survey-html-form,79,2.1.0,772752,P1751998399439,false,0,,,,a,a,a,candlestick,
686d62c4d749baecad1a799b,production,blender,2,,images/blender.jpg,,,,,CP,237,,,survey-html-form,80,2.1.0,772992,P1751998399439,false,0,,,,a,a,a,blender,
686d62c4d749baecad1a799d,production,snail,2,,images/snail.jpg,,,,,CP,240,,,survey-html-form,81,2.1.0,773234,P1751998399439,false,0,,,,a,a,a,snail,
686d62c5d749baecad1a799f,production,bulldozer,2,,images/bulldozer.jpg,,,,,CP,206,,,survey-html-form,82,2.1.0,773444,P1751998399439,false,0,,,,a,a,a,bulldozer,
686d62c5d749baecad1a79a1,production,trumpet,2,,images/trumpet.jpg,,,,,CP,204,,,survey-html-form,83,2.1.0,773650,P1751998399439,false,0,,,,a,a,a,trumpet,
686d62c6d749baecad1a79a3,production,foam,2,,images/foam.jpg,,,,,CP,990,,,survey-html-form,84,2.1.0,774642,P1751998399439,false,0,,,,a,a,a,foam,
687170fd7ccbcb9157f6f941,,,,,,,,,,,765989,,,survey-html-form,1,2.1.0,772046,P1752264185259,,0,4,female,yes,,,,,P001
6871710d7ccbcb9157f6f943,comprehension,ant,0,3,images/ant.jpg,images/muffin.jpg,images/mint.jpg,images/ant.jpg,images/raspberry.jpg,CP,10224,<h3>Which is the ant?</h3>,2,html-button-response,3,2.1.0,788517,P1752264185259,true,0,,,,,,,,
687171177ccbcb9157f6f945,comprehension,ball,0,4,images/ball.jpg,images/snack.jpg,images/pen.jpg,images/peach.jpg,images/ball.jpg,CP,9245,<h3>Which is the ball?</h3>,3,html-button-response,4,2.1.0,797766,P1752264185259,true,0,,,,,,,,
6871711f7ccbcb9157f6f947,comprehension,scoop,1,2,images/scoop.jpg,images/statue.jpg,images/scoop.jpg,images/cauliflower.jpg,images/sauce.jpg,CP,5545,<h3>Which is the scoop?</h3>,3,html-button-response,6,2.1.0,805713,P1752264185259,false,0,,,,,,,,
687171257ccbcb9157f6f949,comprehension,oatmeal,1,2,images/oatmeal.jpg,images/collar.jpg,images/oatmeal.jpg,images/aquarium.jpg,images/cereal.jpg,CP,6883,<h3>Which is the oatmeal?</h3>,1,html-button-response,7,2.1.0,812599,P1752264185259,true,0,,,,,,,,
687171297ccbcb9157f6f94b,comprehension,freezer,1,1,images/freezer.jpg,images/freezer.jpg,images/nest.jpg,images/binoculars.jpg,images/cooler.jpg,CP,3359,<h3>Which is the freezer?</h3>,0,html-button-response,8,2.1.0,815961,P1752264185259,true,0,,,,,,,,
687171307ccbcb9157f6f94d,comprehension,hamster,1,2,images/hamster.jpg,images/tadpole.jpg,images/hamster.jpg,images/rabbit.jpg,images/skirt.jpg,CP,7235,<h3>Which is the hamster?</h3>,0,html-button-response,9,2.1.0,823198,P1752264185259,false,0,,,,,,,,
687171337ccbcb9157f6f94f,comprehension,turtle,1,1,images/turtle.jpg,images/turtle.jpg,images/railing.jpg,images/horse.jpg,images/frog.jpg,CP,2830,<h3>Which is the turtle?</h3>,0,html-button-response,10,2.1.0,826031,P1752264185259,true,0,,,,,,,,
687171367ccbcb9157f6f951,comprehension,sink,1,1,images/sink.jpg,images/sink.jpg,images/knitting.jpg,images/stair.jpg,images/toilet.jpg,CP,3210,<h3>Which is the sink?</h3>,0,html-button-response,11,2.1.0,829244,P1752264185259,true,0,,,,,,,,
6871713b7ccbcb9157f6f953,comprehension,fox,1,1,images/fox.jpg,images/fox.jpg,images/harmonica.jpg,images/reindeer.jpg,images/wolf.jpg,CP,4698,<h3>Which is the fox?</h3>,0,html-button-response,12,2.1.0,833943,P1752264185259,true,0,,,,,,,,
687171437ccbcb9157f6f955,comprehension,cheese,1,4,images/cheese.jpg,images/hippopotamus.jpg,images/butter.jpg,images/mud.jpg,images/cheese.jpg,CP,8533,<h3>Which is the cheese?</h3>,3,html-button-response,13,2.1.0,842477,P1752264185259,true,0,,,,,,,,
6871714c7ccbcb9157f6f957,comprehension,turkey,1,3,images/turkey.jpg,images/swan.jpg,images/pencil.jpg,images/turkey.jpg,images/goat.jpg,CP,9113,<h3>Which is the turkey?</h3>,2,html-button-response,14,2.1.0,851593,P1752264185259,true,0,,,,,,,,
687171507ccbcb9157f6f959,comprehension,shower,1,1,images/shower.jpg,images/shower.jpg,images/toe.jpg,images/cantaloupe.jpg,images/soap.jpg,CP,3333,<h3>Which is the shower?</h3>,0,html-button-response,15,2.1.0,854928,P1752264185259,true,0,,,,,,,,
687171567ccbcb9157f6f95b,comprehension,otter,1,2,images/otter.jpg,images/tablecloth.jpg,images/otter.jpg,images/beaver.jpg,images/goose.jpg,CP,5940,<h3>Which is the otter?</h3>,3,html-button-response,16,2.1.0,860876,P1752264185259,false,0,,,,,,,,
6871715a7ccbcb9157f6f95d,comprehension,marshmallow,1,3,images/marshmallow.jpg,images/rooster.jpg,images/snowball.jpg,images/marshmallow.jpg,images/dryer.jpg,CP,3832,<h3>Which is the marshmallow?</h3>,2,html-button-response,17,2.1.0,864709,P1752264185259,true,0,,,,,,,,
6871715e7ccbcb9157f6f95f,comprehension,pie,1,4,images/pie.jpg,images/sweater.jpg,images/flashlight.jpg,images/pizza.jpg,images/pie.jpg,CP,4198,<h3>Which is the pie?</h3>,3,html-button-response,18,2.1.0,868910,P1752264185259,true,0,,,,,,,,
687171617ccbcb9157f6f961,comprehension,map,2,1,images/map.jpg,images/map.jpg,images/marker.jpg,images/ruby.jpg,images/dishwasher.jpg,CP,3646,<h3>Which is the map?</h3>,0,html-button-response,19,2.1.0,872560,P1752264185259,true,0,,,,,,,,
687171687ccbcb9157f6f963,comprehension,fan,2,1,images/fan.jpg,images/fan.jpg,images/album.jpg,images/chipmunk.jpg,images/boulder.jpg,CP,6946,<h3>Which is the fan?</h3>,0,html-button-response,20,2.1.0,879513,P1752264185259,true,0,,,,,,,,
6871716d7ccbcb9157f6f965,comprehension,hopscotch,2,2,images/hopscotch.jpg,images/chalk.jpg,images/hopscotch.jpg,images/jug.jpg,images/funnel.jpg,CP,4541,<h3>Which is the hopscotch?</h3>,1,html-button-response,21,2.1.0,884059,P1752264185259,true,0,,,,,,,,
687171727ccbcb9157f6f967,comprehension,caramel,2,3,images/caramel.jpg,images/warthog.jpg,images/amber.jpg,images/caramel.jpg,images/olive.jpg,CP,5446,<h3>Which is the caramel?</h3>,1,html-button-response,22,2.1.0,889514,P1752264185259,false,0,,,,,,,,
687171767ccbcb9157f6f969,comprehension,koala,2,4,images/koala.jpg,images/panda.jpg,images/bee.jpg,images/backscratcher.jpg,images/koala.jpg,CP,3724,<h3>Which is the koala?</h3>,3,html-button-response,23,2.1.0,893243,P1752264185259,true,0,,,,,,,,
6871717c7ccbcb9157f6f96b,comprehension,carousel,2,3,images/carousel.jpg,images/dish.jpg,images/melon.jpg,images/carousel.jpg,images/carriage.jpg,CP,5777,<h3>Which is the carousel?</h3>,1,html-button-response,24,2.1.0,899025,P1752264185259,false,0,,,,,,,,
687171847ccbcb9157f6f96d,comprehension,treasure,2,4,images/treasure.jpg,images/lamp.jpg,images/rope.jpg,images/gift.jpg,images/treasure.jpg,CP,8194,<h3>Which is the treasure?</h3>,3,html-button-response,25,2.1.0,907222,P1752264185259,true,0,,,,,,,,
6871718c7ccbcb9157f6f96f,comprehension,pump,2,4,images/pump.jpg,images/coat.jpg,images/plug.jpg,images/scarf.jpg,images/pump.jpg,CP,7632,<h3>Which is the pump?</h3>,1,html-button-response,26,2.1.0,914859,P1752264185259,false,0,,,,,,,,
687171917ccbcb9157f6f971,comprehension,teabag,2,3,images/teabag.jpg,images/braid.jpg,images/tea.jpg,images/teabag.jpg,images/fingerprint.jpg,CP,5693,<h3>Which is the teabag?</h3>,2,html-button-response,27,2.1.0,920557,P1752264185259,true,0,,,,,,,,
687171947ccbcb9157f6f973,comprehension,blender,2,2,images/blender.jpg,images/blind.jpg,images/blender.jpg,images/trampoline.jpg,images/mailbox.jpg,CP,3094,<h3>Which is the blender?</h3>,1,html-button-response,28,2.1.0,923656,P1752264185259,true,0,,,,,,,,
687171987ccbcb9157f6f975,comprehension,snail,2,1,images/snail.jpg,images/snail.jpg,images/worm.jpg,images/cow.jpg,images/visor.jpg,CP,3576,<h3>Which is the snail?</h3>,0,html-button-response,29,2.1.0,927236,P1752264185259,true,0,,,,,,,,
6871719d7ccbcb9157f6f977,comprehension,bulldozer,2,1,images/bulldozer.jpg,images/bulldozer.jpg,images/orange.jpg,images/eggplant.jpg,images/tractor.jpg,CP,4569,<h3>Which is the bulldozer?</h3>,0,html-button-response,30,2.1.0,931807,P1752264185259,true,0,,,,,,,,
6871719f7ccbcb9157f6f979,comprehension,acorn,2,2,images/acorn.jpg,images/clothesline.jpg,images/acorn.jpg,images/coconut.jpg,images/key.jpg,CP,2662,<h3>Which is the acorn?</h3>,1,html-button-response,31,2.1.0,934474,P1752264185259,true,0,,,,,,,,
687171a27ccbcb9157f6f97b,comprehension,blower,3,3,images/blower.jpg,images/burner.jpg,images/papaya.jpg,images/blower.jpg,images/buggy.jpg,CP,3160,<h3>Which is the blower?</h3>,2,html-button-response,32,2.1.0,937639,P1752264185259,true,0,,,,,,,,
687171a67ccbcb9157f6f97d,comprehension,oil,3,1,images/oil.jpg,images/oil.jpg,images/gel.jpg,images/bassinet.jpg,images/grain.jpg,CP,3728,<h3>Which is the oil?</h3>,0,html-button-response,33,2.1.0,941372,P1752264185259,true,0,,,,,,,,
687171aa7ccbcb9157f6f97f,comprehension,buffet,3,1,images/buffet.jpg,images/buffet.jpg,images/counter.jpg,images/crib.jpg,images/rhubarb.jpg,CP,3727,<h3>Which is the buffet?</h3>,3,html-button-response,34,2.1.0,945102,P1752264185259,false,0,,,,,,,,
687171af7ccbcb9157f6f981,comprehension,prune,3,2,images/prune.jpg,images/jukebox.jpg,images/prune.jpg,images/raisin.jpg,images/headrest.jpg,CP,4633,<h3>Which is the prune?</h3>,1,html-button-response,35,2.1.0,949738,P1752264185259,true,0,,,,,,,,
687171b47ccbcb9157f6f983,comprehension,clothespin,3,4,images/clothespin.jpg,images/volleyball.jpg,images/toothpick.jpg,images/fondue.jpg,images/clothespin.jpg,CP,5580,<h3>Which is the clothespin?</h3>,1,html-button-response,36,2.1.0,955323,P1752264185259,false,0,,,,,,,,
687171b87ccbcb9157f6f985,comprehension,stew,3,3,images/stew.jpg,images/mixer.jpg,images/soup.jpg,images/stew.jpg,images/orchid.jpg,CP,3493,<h3>Which is the stew?</h3>,0,html-button-response,37,2.1.0,958820,P1752264185259,false,0,,,,,,,,
687171bb7ccbcb9157f6f987,comprehension,antenna,3,1,images/antenna.jpg,images/antenna.jpg,images/stem.jpg,images/pinecone.jpg,images/backgammon.jpg,CP,3645,<h3>Which is the antenna?</h3>,0,html-button-response,38,2.1.0,962469,P1752264185259,true,0,,,,,,,,
687171be7ccbcb9157f6f989,comprehension,footbath,3,4,images/footbath.jpg,images/trough.jpg,images/vest.jpg,images/rhinoceros.jpg,images/footbath.jpg,CP,2676,<h3>Which is the footbath?</h3>,3,html-button-response,39,2.1.0,965150,P1752264185259,true,0,,,,,,,,
687171c17ccbcb9157f6f98b,comprehension,barrel,3,4,images/barrel.jpg,images/shelf.jpg,images/anteater.jpg,images/bucket.jpg,images/barrel.jpg,CP,3201,<h3>Which is the barrel?</h3>,1,html-button-response,40,2.1.0,968352,P1752264185259,false,0,,,,,,,,
687171c57ccbcb9157f6f98d,comprehension,sandbag,3,4,images/sandbag.jpg,images/octopus.jpg,images/valve.jpg,images/sandpaper.jpg,images/sandbag.jpg,CP,3595,<h3>Which is the sandbag?</h3>,3,html-button-response,41,2.1.0,971951,P1752264185259,true,0,,,,,,,,
687171c87ccbcb9157f6f98f,comprehension,latch,3,1,images/latch.jpg,images/latch.jpg,images/microwave.jpg,images/umbrella.jpg,images/lock.jpg,CP,3683,<h3>Which is the latch?</h3>,0,html-button-response,42,2.1.0,975638,P1752264185259,true,0,,,,,,,,
687171ce7ccbcb9157f6f991,comprehension,sloth,3,2,images/sloth.jpg,images/clam.jpg,images/sloth.jpg,images/donkey.jpg,images/incense.jpg,CP,5211,<h3>Which is the sloth?</h3>,1,html-button-response,43,2.1.0,980855,P1752264185259,true,0,,,,,,,,
687171d17ccbcb9157f6f993,comprehension,gutter,3,3,images/gutter.jpg,images/porthole.jpg,images/filter.jpg,images/gutter.jpg,images/almond.jpg,CP,3708,<h3>Which is the gutter?</h3>,0,html-button-response,44,2.1.0,984569,P1752264185259,false,0,,,,,,,,
687171d67ccbcb9157f6f995,comprehension,waterwheel,4,4,images/waterwheel.jpg,images/boa.jpg,images/target.jpg,images/pinwheel.jpg,images/waterwheel.jpg,CP,4612,<h3>Which is the waterwheel?</h3>,2,html-button-response,45,2.1.0,989185,P1752264185259,false,0,,,,,,,,
687171db7ccbcb9157f6f997,comprehension,bobsled,4,1,images/bobsled.jpg,images/bobsled.jpg,images/dip.jpg,images/sidecar.jpg,images/cilantro.jpg,CP,4528,<h3>Which is the bobsled?</h3>,2,html-button-response,46,2.1.0,993717,P1752264185259,false,0,,,,,,,,
687171de7ccbcb9157f6f999,comprehension,sauerkraut,4,2,images/sauerkraut.jpg,images/dashboard.jpg,images/sauerkraut.jpg,images/clove.jpg,images/potpourri.jpg,CP,3362,<h3>Which is the sauerkraut?</h3>,2,html-button-response,47,2.1.0,997081,P1752264185259,false,0,,,,,,,,
687171e27ccbcb9157f6f99b,comprehension,aloe,4,3,images/aloe.jpg,images/cactus.jpg,images/bracket.jpg,images/aloe.jpg,images/banner.jpg,CP,3696,<h3>Which is the aloe?</h3>,1,html-button-response,48,2.1.0,1000781,P1752264185259,false,0,,,,,,,,
687171e57ccbcb9157f6f99d,comprehension,mulch,4,4,images/mulch.jpg,images/compost.jpg,images/clarinet.jpg,images/lantern.jpg,images/mulch.jpg,CP,3481,<h3>Which is the mulch?</h3>,2,html-button-response,49,2.1.0,1004263,P1752264185259,false,0,,,,,,,,
687171e57ccbcb9157f6f99f,comprehension,scaffolding,4,4,images/scaffolding.jpg,images/satellite.jpg,images/veil.jpg,images/antelope.jpg,images/scaffolding.jpg,CP,,,,html-button-response,54,2.1.0,1004266,P1752264185259,false,0,,,,,,,,
687171e57ccbcb9157f6f9a5,comprehension,bamboo,4,1,images/bamboo.jpg,images/bamboo.jpg,images/apron.jpg,images/lumber.jpg,images/yacht.jpg,CP,,,,html-button-response,52,2.1.0,1004265,P1752264185259,false,0,,,,,,,,
687171e57ccbcb9157f6f9a7,comprehension,artichoke,4,2,images/artichoke.jpg,images/sunroof.jpg,images/artichoke.jpg,images/cello.jpg,images/leek.jpg,CP,,,,html-button-response,55,2.1.0,1004267,P1752264185259,false,0,,,,,,,,
687171e57ccbcb9157f6f9a9,comprehension,tapestry,4,4,images/tapestry.jpg,images/forklift.jpg,images/leggings.jpg,images/backdrop.jpg,images/tapestry.jpg,CP,,,,html-button-response,50,2.1.0,1004264,P1752264185259,false,0,,,,,,,,
687171e57ccbcb9157f6f9ab,comprehension,turbine,4,3,images/turbine.jpg,images/generator.jpg,images/tab.jpg,images/turbine.jpg,images/pesto.jpg,CP,,,,html-button-response,56,2.1.0,1004267,P1752264185259,false,0,,,,,,,,
687171e57ccbcb9157f6f9a1,comprehension,sorbet,4,4,images/sorbet.jpg,images/tamale.jpg,images/chive.jpg,images/palette.jpg,images/sorbet.jpg,CP,,,,html-button-response,53,2.1.0,1004266,P1752264185259,false,0,,,,,,,,
687171e57ccbcb9157f6f9a3,comprehension,mandolin,4,3,images/mandolin.jpg,images/gourd.jpg,images/seismograph.jpg,images/mandolin.jpg,images/mast.jpg,CP,,,,html-button-response,51,2.1.0,1004265,P1752264185259,false,0,,,,,,,,
687171e57ccbcb9157f6f9ad,comprehension,gondola,4,1,images/gondola.jpg,images/gondola.jpg,images/charger.jpg,images/clipboard.jpg,images/trolley.jpg,CP,,,,html-button-response,57,2.1.0,1004269,P1752264185259,false,0,,,,,,,,
687171f37ccbcb9157f6f9af,production,duck,0,,images/duck.jpg,,,,,CP,6334,,,survey-html-form,60,2.1.0,1017706,P1752264185259,true,0,,,,duck,duck,duck,duck,
687171fb7ccbcb9157f6f9b1,production,wheel,0,,images/wheel.jpg,,,,,CP,8224,,,survey-html-form,61,2.1.0,1025934,P1752264185259,true,0,,,,wheel,wheel,wheel,wheel,
687172077ccbcb9157f6f9b3,production,squirrel,1,,images/squirrel.jpg,,,,,CP,10905,,,survey-html-form,63,2.1.0,1038572,P1752264185259,false,0,,,,rabbit,rabbit,rabbit,squirrel,
6871720d7ccbcb9157f6f9b5,production,potato,1,,images/potato.jpg,,,,,CP,5556,,,survey-html-form,64,2.1.0,1044132,P1752264185259,true,0,,,,potato,potato,potato,potato,
687172147ccbcb9157f6f9b7,production,ship,1,,images/ship.jpg,,,,,CP,6946,,,survey-html-form,65,2.1.0,1051081,P1752264185259,true,0,,,,ship,ship,ship,ship,
6871723f7ccbcb9157f6f9b9,production,elbow,1,,images/elbow.jpg,,,,,CP,43309,,,survey-html-form,66,2.1.0,1094393,P1752264185259,false,0,,,,bone,bone,bone,elbow,
6871725a7ccbcb9157f6f9bb,production,puddle,1,,images/puddle.jpg,,,,,CP,26995,,,survey-html-form,67,2.1.0,1121392,P1752264185259,true,0,,,,water/puddle,water/puddle,puddle,puddle,
687172687ccbcb9157f6f9bd,production,pajamas,1,,images/pajamas.jpg,,,,,CP,13685,,,survey-html-form,68,2.1.0,1135081,P1752264185259,false,0,,,,T-Shirt,t-shirt,t-shirt,pajamas,
687172907ccbcb9157f6f9bf,production,horn,1,,images/horn.jpg,,,,,CP,40420,,,survey-html-form,69,2.1.0,1175504,P1752264185259,false,0,,,,idk,idk,idk,horn,
6871729d7ccbcb9157f6f9c1,production,lollipop,1,,images/lollipop.jpg,,,,,CP,12825,,,survey-html-form,70,2.1.0,1188332,P1752264185259,true,0,,,,candy/lollipop,candy/lollipop,lollipop,lollipop,
687172a67ccbcb9157f6f9c3,production,sprinkler,1,,images/sprinkler.jpg,,,,,CP,9299,,,survey-html-form,71,2.1.0,1197634,P1752264185259,true,0,,,,sprinkler,sprinkler,sprinkler,sprinkler,
687172b77ccbcb9157f6f9c5,production,seagull,1,,images/seagull.jpg,,,,,CP,16988,,,survey-html-form,72,2.1.0,1214626,P1752264185259,false,0,,,,white bird,white bird,white bird,seagull,
687172bd7ccbcb9157f6f9c7,production,watermelon,1,,images/watermelon.jpg,,,,,CP,5921,,,survey-html-form,73,2.1.0,1220550,P1752264185259,false,0,,,,wtaermelon,wtaermelon,wtaermelon,watermelon,
687172c87ccbcb9157f6f9c9,production,rice,1,,images/rice.jpg,,,,,CP,10476,,,survey-html-form,74,2.1.0,1231032,P1752264185259,false,0,,,,sugar,sugar,sugar,rice,
687172dc7ccbcb9157f6f9cb,production,cake,1,,images/cake.jpg,,,,,CP,19649,,,survey-html-form,75,2.1.0,1250686,P1752264185259,false,0,,,,dessert/cake/fruitcake,dessert/cake/fruitcake,fruitcake,cake,
687172e17ccbcb9157f6f9cd,production,carrot,1,,images/carrot.jpg,,,,,CP,5948,,,survey-html-form,76,2.1.0,1256639,P1752264185259,true,0,,,,carrot,carrot,carrot,carrot,
687172ec7ccbcb9157f6f9cf,production,squash,2,,images/squash.jpg,,,,,CP,10268,,,survey-html-form,77,2.1.0,1266912,P1752264185259,false,0,,,,pumpkin,pumpkin,pumpkin,squash,
687172ff7ccbcb9157f6f9d1,production,foam,2,,images/foam.jpg,,,,,CP,19431,,,survey-html-form,78,2.1.0,1286346,P1752264185259,false,0,,,,idk,idk,idk,foam,
687173077ccbcb9157f6f9d3,production,trumpet,2,,images/trumpet.jpg,,,,,CP,7853,,,survey-html-form,79,2.1.0,1294204,P1752264185259,true,0,,,,trumpet,trumpet,trumpet,trumpet,
687173267ccbcb9157f6f9d5,production,silverware,2,,images/silverware.jpg,,,,,CP,30826,,,survey-html-form,80,2.1.0,1325034,P1752264185259,false,0,,,,spoon & fork,spoon & fork,spoon & fork,silverware,
687173367ccbcb9157f6f9d7,production,omelet,2,,images/omelet.jpg,,,,,CP,16365,,,survey-html-form,81,2.1.0,1341405,P1752264185259,false,0,,,,veggie egg,veggie egg,veggie egg,omelet,
687173497ccbcb9157f6f9d9,production,pitcher,2,,images/pitcher.jpg,,,,,CP,19081,,,survey-html-form,82,2.1.0,1360490,P1752264185259,false,0,,,,jug,jug,jug,pitcher,
687173547ccbcb9157f6f9db,production,cornbread,2,,images/cornbread.jpg,,,,,CP,10923,,,survey-html-form,83,2.1.0,1371419,P1752264185259,false,0,,,,bread cake,bread cake,bread cake,cornbread,
6871735f7ccbcb9157f6f9dd,production,typewriter,2,,images/typewriter.jpg,,,,,CP,11196,,,survey-html-form,84,2.1.0,1382620,P1752264185259,false,0,,,,idk,idk,idk,typewriter,
687173707ccbcb9157f6f9df,production,cassette,2,,images/cassette.jpg,,,,,CP,16237,,,survey-html-form,85,2.1.0,1398860,P1752264185259,false,0,,,,idk,idk,idk,cassette,
6871738f7ccbcb9157f6f9e1,,,,,,,,,,,20389,,,survey-html-form,1,2.1.0,21512,P1752265594334,,0,4,male,yes,,,,,P002
687173967ccbcb9157f6f9e3,comprehension,ant,0,1,images/ant.jpg,images/ant.jpg,images/muffin.jpg,images/mint.jpg,images/raspberry.jpg,CP,2944,<h3>Which is the ant?</h3>,0,html-button-response,3,2.1.0,27890,P1752265594334,true,0,,,,,,,,
6871739a7ccbcb9157f6f9e5,comprehension,duck,0,1,images/duck.jpg,images/duck.jpg,images/tongue.jpg,images/snake.jpg,images/ladder.jpg,CP,4095,<h3>Which is the duck?</h3>,0,html-button-response,4,2.1.0,31990,P1752265594334,true,0,,,,,,,,
6871739e7ccbcb9157f6f9e7,comprehension,potato,1,2,images/potato.jpg,images/dragonfly.jpg,images/potato.jpg,images/pot.jpg,images/glasses.jpg,CP,2450,<h3>Which is the potato?</h3>,1,html-button-response,6,2.1.0,36174,P1752265594334,true,0,,,,,,,,
687173a27ccbcb9157f6f9e9,comprehension,squirrel,1,3,images/squirrel.jpg,images/eagle.jpg,images/shorts.jpg,images/squirrel.jpg,images/monkey.jpg,CP,3442,<h3>Which is the squirrel?</h3>,2,html-button-response,7,2.1.0,39622,P1752265594334,true,0,,,,,,,,
687173a47ccbcb9157f6f9eb,comprehension,marshmallow,1,2,images/marshmallow.jpg,images/snowball.jpg,images/marshmallow.jpg,images/dryer.jpg,images/rooster.jpg,CP,2247,<h3>Which is the marshmallow?</h3>,1,html-button-response,8,2.1.0,41872,P1752265594334,true,0,,,,,,,,
687173a67ccbcb9157f6f9ed,comprehension,turtle,1,2,images/turtle.jpg,images/frog.jpg,images/turtle.jpg,images/railing.jpg,images/horse.jpg,CP,2727,<h3>Which is the turtle?</h3>,1,html-button-response,9,2.1.0,44605,P1752265594334,true,0,,,,,,,,
687173aa7ccbcb9157f6f9ef,comprehension,elbow,1,4,images/elbow.jpg,images/bed.jpg,images/arm.jpg,images/gorilla.jpg,images/elbow.jpg,CP,3911,<h3>Which is the elbow?</h3>,3,html-button-response,10,2.1.0,48521,P1752265594334,true,0,,,,,,,,
687173ae7ccbcb9157f6f9f1,comprehension,shower,1,4,images/shower.jpg,images/toe.jpg,images/soap.jpg,images/cantaloupe.jpg,images/shower.jpg,CP,3746,<h3>Which is the shower?</h3>,3,html-button-response,11,2.1.0,52272,P1752265594334,true,0,,,,,,,,
687173b07ccbcb9157f6f9f3,comprehension,sprinkler,1,1,images/sprinkler.jpg,images/sprinkler.jpg,images/flower.jpg,images/charcoal.jpg,images/sparkler.jpg,CP,1879,<h3>Which is the sprinkler?</h3>,0,html-button-response,12,2.1.0,54155,P1752265594334,true,0,,,,,,,,
687173b57ccbcb9157f6f9f5,comprehension,otter,1,3,images/otter.jpg,images/tablecloth.jpg,images/goose.jpg,images/otter.jpg,images/beaver.jpg,CP,5062,<h3>Which is the otter?</h3>,2,html-button-response,13,2.1.0,59222,P1752265594334,true,0,,,,,,,,
687173b77ccbcb9157f6f9f7,comprehension,ship,1,2,images/ship.jpg,images/boat.jpg,images/ship.jpg,images/nose.jpg,images/zucchini.jpg,CP,2330,<h3>Which is the ship?</h3>,0,html-button-response,14,2.1.0,61556,P1752265594334,false,0,,,,,,,,
687173ba7ccbcb9157f6f9f9,comprehension,oatmeal,1,4,images/oatmeal.jpg,images/cereal.jpg,images/aquarium.jpg,images/collar.jpg,images/oatmeal.jpg,CP,2278,<h3>Which is the oatmeal?</h3>,3,html-button-response,15,2.1.0,63837,P1752265594334,true,0,,,,,,,,
687173bc7ccbcb9157f6f9fb,comprehension,watermelon,1,3,images/watermelon.jpg,images/strawberry.jpg,images/screwdriver.jpg,images/watermelon.jpg,images/crane.jpg,CP,2312,<h3>Which is the watermelon?</h3>,2,html-button-response,16,2.1.0,66153,P1752265594334,true,0,,,,,,,,
687173bf7ccbcb9157f6f9fd,comprehension,puddle,1,2,images/puddle.jpg,images/baseball.jpg,images/puddle.jpg,images/bubble.jpg,images/salami.jpg,CP,3313,<h3>Which is the puddle?</h3>,1,html-button-response,17,2.1.0,69470,P1752265594334,true,0,,,,,,,,
687173c27ccbcb9157f6f9ff,comprehension,fox,1,3,images/fox.jpg,images/wolf.jpg,images/reindeer.jpg,images/fox.jpg,images/harmonica.jpg,CP,2343,<h3>Which is the fox?</h3>,2,html-button-response,18,2.1.0,71817,P1752265594334,true,0,,,,,,,,
687173c57ccbcb9157f6fa01,comprehension,koala,2,1,images/koala.jpg,images/koala.jpg,images/bee.jpg,images/backscratcher.jpg,images/panda.jpg,CP,3599,<h3>Which is the koala?</h3>,0,html-button-response,19,2.1.0,75419,P1752265594334,true,0,,,,,,,,
687173c97ccbcb9157f6fa03,comprehension,snail,2,1,images/snail.jpg,images/snail.jpg,images/visor.jpg,images/cow.jpg,images/worm.jpg,CP,3213,<h3>Which is the snail?</h3>,0,html-button-response,20,2.1.0,78636,P1752265594334,true,0,,,,,,,,
687173cc7ccbcb9157f6fa05,comprehension,squash,2,3,images/squash.jpg,images/branch.jpg,images/gazelle.jpg,images/squash.jpg,images/pumpkin.jpg,CP,3027,<h3>Which is the squash?</h3>,1,html-button-response,21,2.1.0,81668,P1752265594334,false,0,,,,,,,,
687173ce7ccbcb9157f6fa07,comprehension,blender,2,3,images/blender.jpg,images/blind.jpg,images/mailbox.jpg,images/blender.jpg,images/trampoline.jpg,CP,2230,<h3>Which is the blender?</h3>,2,html-button-response,22,2.1.0,83901,P1752265594334,true,0,,,,,,,,
687173d07ccbcb9157f6fa09,comprehension,acorn,2,3,images/acorn.jpg,images/coconut.jpg,images/clothesline.jpg,images/acorn.jpg,images/key.jpg,CP,2629,<h3>Which is the acorn?</h3>,2,html-button-response,23,2.1.0,86534,P1752265594334,true,0,,,,,,,,
687173d37ccbcb9157f6fa0b,comprehension,caramel,2,3,images/caramel.jpg,images/olive.jpg,images/warthog.jpg,images/caramel.jpg,images/amber.jpg,CP,2229,<h3>Which is the caramel?</h3>,3,html-button-response,24,2.1.0,88768,P1752265594334,false,0,,,,,,,,
687173d57ccbcb9157f6fa0d,comprehension,sunflower,2,3,images/sunflower.jpg,images/pinball.jpg,images/pineapple.jpg,images/sunflower.jpg,images/rim.jpg,CP,2713,<h3>Which is the sunflower?</h3>,2,html-button-response,25,2.1.0,91484,P1752265594334,true,0,,,,,,,,
687173d87ccbcb9157f6fa0f,comprehension,carousel,2,1,images/carousel.jpg,images/carousel.jpg,images/dish.jpg,images/melon.jpg,images/carriage.jpg,CP,2163,<h3>Which is the carousel?</h3>,0,html-button-response,26,2.1.0,93650,P1752265594334,true,0,,,,,,,,
687173da7ccbcb9157f6fa11,comprehension,saddle,2,1,images/saddle.jpg,images/saddle.jpg,images/handle.jpg,images/broccoli.jpg,images/figurine.jpg,CP,2747,<h3>Which is the saddle?</h3>,3,html-button-response,27,2.1.0,96396,P1752265594334,false,0,,,,,,,,
687173dd7ccbcb9157f6fa13,comprehension,omelet,2,1,images/omelet.jpg,images/omelet.jpg,images/clay.jpg,images/trunk.jpg,images/pancake.jpg,CP,2647,<h3>Which is the omelet?</h3>,0,html-button-response,28,2.1.0,99042,P1752265594334,true,0,,,,,,,,
687173e07ccbcb9157f6fa15,comprehension,silverware,2,1,images/silverware.jpg,images/silverware.jpg,images/garlic.jpg,images/eggnog.jpg,images/trophy.jpg,CP,3446,<h3>Which is the silverware?</h3>,3,html-button-response,29,2.1.0,102487,P1752265594334,false,0,,,,,,,,
687173e37ccbcb9157f6fa17,comprehension,typewriter,2,1,images/typewriter.jpg,images/typewriter.jpg,images/sunglasses.jpg,images/printer.jpg,images/drumstick.jpg,CP,2680,<h3>Which is the typewriter?</h3>,0,html-button-response,30,2.1.0,105168,P1752265594334,true,0,,,,,,,,
687173e67ccbcb9157f6fa19,comprehension,foam,2,2,images/foam.jpg,images/float.jpg,images/foam.jpg,images/asparagus.jpg,images/quilt.jpg,CP,3096,<h3>Which is the foam?</h3>,3,html-button-response,31,2.1.0,108265,P1752265594334,false,0,,,,,,,,
687173e87ccbcb9157f6fa1b,comprehension,tulip,3,1,images/tulip.jpg,images/tulip.jpg,images/glove.jpg,images/hubcap.jpg,images/rose.jpg,CP,2313,<h3>Which is the tulip?</h3>,1,html-button-response,32,2.1.0,110580,P1752265594334,false,0,,,,,,,,
687173eb7ccbcb9157f6fa1d,comprehension,fruitcake,3,2,images/fruitcake.jpg,images/fudge.jpg,images/fruitcake.jpg,images/anvil.jpg,images/dough.jpg,CP,2446,<h3>Which is the fruitcake?</h3>,0,html-button-response,33,2.1.0,113029,P1752265594334,false,0,,,,,,,,
687173ee7ccbcb9157f6fa1f,comprehension,clothespin,3,3,images/clothespin.jpg,images/fondue.jpg,images/volleyball.jpg,images/clothespin.jpg,images/toothpick.jpg,CP,3078,<h3>Which is the clothespin?</h3>,3,html-button-response,34,2.1.0,116110,P1752265594334,false,0,,,,,,,,
687173f07ccbcb9157f6fa21,comprehension,stew,3,4,images/stew.jpg,images/soup.jpg,images/orchid.jpg,images/mixer.jpg,images/stew.jpg,CP,2078,<h3>Which is the stew?</h3>,0,html-button-response,35,2.1.0,118191,P1752265594334,false,0,,,,,,,,
687173f37ccbcb9157f6fa23,comprehension,buffet,3,2,images/buffet.jpg,images/rhubarb.jpg,images/buffet.jpg,images/counter.jpg,images/crib.jpg,CP,,,,html-button-response,37,2.1.0,120744,P1752265594334,false,0,,,,,,,,
687173f37ccbcb9157f6fa25,comprehension,bouquet,3,4,images/bouquet.jpg,images/bandanna.jpg,images/submarine.jpg,images/centerpiece.jpg,images/bouquet.jpg,CP,2548,<h3>Which is the bouquet?</h3>,2,html-button-response,36,2.1.0,120741,P1752265594334,false,0,,,,,,,,
687173f37ccbcb9157f6fa27,comprehension,stump,3,2,images/stump.jpg,images/bookshelf.jpg,images/stump.jpg,images/showerhead.jpg,images/log.jpg,CP,,,,html-button-response,39,2.1.0,120748,P1752265594334,false,0,,,,,,,,
687173f37ccbcb9157f6fa29,comprehension,coaster,3,4,images/coaster.jpg,images/card.jpg,images/hummingbird.jpg,images/painting.jpg,images/coaster.jpg,CP,,,,html-button-response,38,2.1.0,120746,P1752265594334,false,0,,,,,,,,
687173f37ccbcb9157f6fa2b,comprehension,tuxedo,3,3,images/tuxedo.jpg,images/moccasin.jpg,images/suit.jpg,images/tuxedo.jpg,images/stroller.jpg,CP,,,,html-button-response,44,2.1.0,120758,P1752265594334,false,0,,,,,,,,
687173f37ccbcb9157f6fa2d,comprehension,kimono,4,2,images/kimono.jpg,images/turntable.jpg,images/kimono.jpg,images/cardigan.jpg,images/cable.jpg,CP,,,,html-button-response,45,2.1.0,120760,P1752265594334,false,0,,,,,,,,
687173f37ccbcb9157f6fa2f,comprehension,net,3,2,images/net.jpg,images/hydrant.jpg,images/net.jpg,images/domino.jpg,images/tee.jpg,CP,,,,html-button-response,41,2.1.0,120752,P1752265594334,false,0,,,,,,,,
687173f37ccbcb9157f6fa31,comprehension,locker,3,4,images/locker.jpg,images/cabinet.jpg,images/basket.jpg,images/gargoyle.jpg,images/locker.jpg,CP,,,,html-button-response,40,2.1.0,120750,P1752265594334,false,0,,,,,,,,
687173f37ccbcb9157f6fa33,comprehension,cloak,3,3,images/cloak.jpg,images/hood.jpg,images/jellyfish.jpg,images/cloak.jpg,images/cinnamon.jpg,CP,,,,html-button-response,42,2.1.0,120753,P1752265594334,false,0,,,,,,,,
687173f37ccbcb9157f6fa35,comprehension,sandbag,3,4,images/sandbag.jpg,images/valve.jpg,images/octopus.jpg,images/sandpaper.jpg,images/sandbag.jpg,CP,,,,html-button-response,43,2.1.0,120756,P1752265594334,false,0,,,,,,,,
687173f37ccbcb9157f6fa37,comprehension,mandolin,4,3,images/mandolin.jpg,images/gourd.jpg,images/mast.jpg,images/mandolin.jpg,images/seismograph.jpg,CP,,,,html-button-response,47,2.1.0,120763,P1752265594334,false,0,,,,,,,,
687173f37ccbcb9157f6fa39,comprehension,pistachio,4,4,images/pistachio.jpg,images/avocado.jpg,images/bagpipe.jpg,images/taco.jpg,images/pistachio.jpg,CP,,,,html-button-response,46,2.1.0,120762,P1752265594334,false,0,,,,,,,,
687173f37ccbcb9157f6fa3b,comprehension,prism,4,4,images/prism.jpg,images/chinchilla.jpg,images/radar.jpg,images/subway.jpg,images/prism.jpg,CP,,,,html-button-response,48,2.1.0,120765,P1752265594334,false,0,,,,,,,,
687173f37ccbcb9157f6fa3d,comprehension,corset,4,2,images/corset.jpg,images/bonsai.jpg,images/corset.jpg,images/mantle.jpg,images/harness.jpg,CP,,,,html-button-response,49,2.1.0,120766,P1752265594334,false,0,,,,,,,,
687173f37ccbcb9157f6fa3f,comprehension,tapestry,4,1,images/tapestry.jpg,images/tapestry.jpg,images/backdrop.jpg,images/forklift.jpg,images/leggings.jpg,CP,,,,html-button-response,50,2.1.0,120768,P1752265594334,false,0,,,,,,,,
687173f37ccbcb9157f6fa41,comprehension,gondola,4,1,images/gondola.jpg,images/gondola.jpg,images/charger.jpg,images/clipboard.jpg,images/trolley.jpg,CP,,,,html-button-response,51,2.1.0,120769,P1752265594334,false,0,,,,,,,,
687173f37ccbcb9157f6fa43,comprehension,sorbet,4,4,images/sorbet.jpg,images/tamale.jpg,images/chive.jpg,images/palette.jpg,images/sorbet.jpg,CP,,,,html-button-response,52,2.1.0,120769,P1752265594334,false,0,,,,,,,,
687173f37ccbcb9157f6fa45,comprehension,stretcher,4,3,images/stretcher.jpg,images/vase.jpg,images/thermostat.jpg,images/stretcher.jpg,images/drill.jpg,CP,,,,html-button-response,53,2.1.0,120770,P1752265594334,false,0,,,,,,,,
687173f37ccbcb9157f6fa47,comprehension,grate,4,3,images/grate.jpg,images/reel.jpg,images/tuba.jpg,images/grate.jpg,images/crate.jpg,CP,,,,html-button-response,55,2.1.0,120772,P1752265594334,false,0,,,,,,,,
687173f37ccbcb9157f6fa49,comprehension,swordfish,4,4,images/swordfish.jpg,images/graffiti.jpg,images/leopard.jpg,images/catfish.jpg,images/swordfish.jpg,CP,,,,html-button-response,56,2.1.0,120773,P1752265594334,false,0,,,,,,,,
687173f37ccbcb9157f6fa4b,comprehension,artichoke,4,1,images/artichoke.jpg,images/artichoke.jpg,images/cello.jpg,images/sunroof.jpg,images/leek.jpg,CP,,,,html-button-response,54,2.1.0,120771,P1752265594334,false,0,,,,,,,,
687173f37ccbcb9157f6fa4d,comprehension,scaffolding,4,4,images/scaffolding.jpg,images/antelope.jpg,images/veil.jpg,images/satellite.jpg,images/scaffolding.jpg,CP,,,,html-button-response,57,2.1.0,120773,P1752265594334,false,0,,,,,,,,
687173fe7ccbcb9157f6fa4f,production,wheel,0,,images/wheel.jpg,,,,,CP,6715,,,survey-html-form,60,2.1.0,132024,P1752265594334,true,0,,,,wheel,wheel,wheel,wheel,
687174017ccbcb9157f6fa51,production,ball,0,,images/ball.jpg,,,,,CP,2895,,,survey-html-form,61,2.1.0,134923,P1752265594334,true,0,,,,ball,ball,ball,ball,
687174067ccbcb9157f6fa53,production,rice,1,,images/rice.jpg,,,,,CP,3983,,,survey-html-form,63,2.1.0,140305,P1752265594334,true,0,,,,rice,rice,rice,rice,
6871742b7ccbcb9157f6fa55,production,scoop,1,,images/scoop.jpg,,,,,CP,36361,,,survey-html-form,64,2.1.0,176669,P1752265594334,false,0,,,,idk/dig/excavate,idk/dig/excavate,excavate,scoop,
687174317ccbcb9157f6fa57,production,turkey,1,,images/turkey.jpg,,,,,CP,6492,,,survey-html-form,65,2.1.0,183165,P1752265594334,false,0,,,,eagle,eagle,eagle,turkey,
687174397ccbcb9157f6fa59,production,seagull,1,,images/seagull.jpg,,,,,CP,7935,,,survey-html-form,66,2.1.0,191103,P1752265594334,false,0,,,,idk,idk,idk,seagull,
687174457ccbcb9157f6fa5b,production,pajamas,1,,images/pajamas.jpg,,,,,CP,11521,,,survey-html-form,67,2.1.0,202628,P1752265594334,false,0,,,,clothes,clothes,clothes,pajamas,
6871744d7ccbcb9157f6fa5d,production,horn,1,,images/horn.jpg,,,,,CP,8145,,,survey-html-form,68,2.1.0,210777,P1752265594334,false,0,,,,jam,jam,jam,horn,
687174827ccbcb9157f6fa5f,production,freezer,1,,images/freezer.jpg,,,,,CP,53403,,,survey-html-form,69,2.1.0,264184,P1752265594334,true,0,,,,refrigerator/freezer,refrigerator/freezer,freezer,freezer,
687174867ccbcb9157f6fa61,production,carrot,1,,images/carrot.jpg,,,,,CP,4223,,,survey-html-form,70,2.1.0,268411,P1752265594334,true,0,,,,carrot,carrot,carrot,carrot,
6871748a7ccbcb9157f6fa63,production,hamster,1,,images/hamster.jpg,,,,,CP,3674,,,survey-html-form,71,2.1.0,272089,P1752265594334,true,0,,,,hamster,hamster,hamster,hamster,
687174917ccbcb9157f6fa65,production,lollipop,1,,images/lollipop.jpg,,,,,CP,7116,,,survey-html-form,72,2.1.0,279209,P1752265594334,true,0,,,,lollipop,lollipop,lollipop,lollipop,
687174947ccbcb9157f6fa67,production,sink,1,,images/sink.jpg,,,,,CP,3148,,,survey-html-form,73,2.1.0,282361,P1752265594334,true,0,,,,sink,sink,sink,sink,
687174977ccbcb9157f6fa69,production,pie,1,,images/pie.jpg,,,,,CP,3155,,,survey-html-form,74,2.1.0,285519,P1752265594334,true,0,,,,pie,pie,pie,pie,
6871749c7ccbcb9157f6fa6b,production,cheese,1,,images/cheese.jpg,,,,,CP,4113,,,survey-html-form,75,2.1.0,289635,P1752265594334,true,0,,,,cheese,cheese,cheese,cheese,
687174a87ccbcb9157f6fa6d,production,cake,1,,images/cake.jpg,,,,,CP,12070,,,survey-html-form,76,2.1.0,301708,P1752265594334,false,0,,,,fruitcake,fruitcake,fruitcake,cake,
687174ad7ccbcb9157f6fa6f,production,cassette,2,,images/cassette.jpg,,,,,CP,5241,,,survey-html-form,77,2.1.0,306953,P1752265594334,false,0,,,,guitar,guitar,guitar,cassette,
687174b37ccbcb9157f6fa71,production,teapot,2,,images/teapot.jpg,,,,,CP,6186,,,survey-html-form,78,2.1.0,313142,P1752265594334,true,0,,,,teapot,teapot,teapot,teapot,
687174ba7ccbcb9157f6fa73,production,teabag,2,,images/teabag.jpg,,,,,CP,6724,,,survey-html-form,79,2.1.0,319868,P1752265594334,true,0,,,,teabag,teabag,teabag,teabag,
687174bd7ccbcb9157f6fa75,production,map,2,,images/map.jpg,,,,,CP,2900,,,survey-html-form,80,2.1.0,322772,P1752265594334,true,0,,,,map,map,map,map,
687174c07ccbcb9157f6fa77,production,fan,2,,images/fan.jpg,,,,,CP,2860,,,survey-html-form,81,2.1.0,325635,P1752265594334,true,0,,,,fan,fan,fan,fan,
687174c67ccbcb9157f6fa79,production,ski,2,,images/ski.jpg,,,,,CP,5952,,,survey-html-form,82,2.1.0,331591,P1752265594334,false,0,,,,skate,skate,skate,ski,
687174cb7ccbcb9157f6fa7b,production,hopscotch,2,,images/hopscotch.jpg,,,,,CP,5534,,,survey-html-form,83,2.1.0,337128,P1752265594334,true,0,,,,hopscotch,hopscotch,hopscotch,hopscotch,
687174db7ccbcb9157f6fa7d,production,pitcher,2,,images/pitcher.jpg,,,,,CP,15952,,,survey-html-form,84,2.1.0,353084,P1752265594334,false,0,,,,glass of water/jug,glass of water/jug,jug,pitcher,
687174de7ccbcb9157f6fa7f,production,trumpet,2,,images/trumpet.jpg,,,,,CP,3460,,,survey-html-form,85,2.1.0,356548,P1752265594334,true,0,,,,trumpet,trumpet,trumpet,trumpet,
687174e77ccbcb9157f6fa81,production,treasure,2,,images/treasure.jpg,,,,,CP,8565,,,survey-html-form,86,2.1.0,365117,P1752265594334,true,0,,,,treasure,treasure,treasure,treasure,
687174ed7ccbcb9157f6fa83,production,cornbread,2,,images/cornbread.jpg,,,,,CP,6446,,,survey-html-form,87,2.1.0,371566,P1752265594334,false,0,,,,cheesecake,cheesecake,cheesecake,cornbread,
687174f97ccbcb9157f6fa85,production,pump,2,,images/pump.jpg,,,,,CP,11075,,,survey-html-form,88,2.1.0,382643,P1752265594334,false,0,,,,faucet,faucet,faucet,pump,
687174ff7ccbcb9157f6fa87,production,candlestick,2,,images/candlestick.jpg,,,,,CP,6491,,,survey-html-form,89,2.1.0,389137,P1752265594334,false,0,,,,planter,planter,planter,candlestick,
687175047ccbcb9157f6fa89,production,bulldozer,2,,images/bulldozer.jpg,,,,,CP,4969,,,survey-html-form,90,2.1.0,394109,P1752265594334,true,0,,,,bulldozer,bulldozer,bulldozer,bulldozer,
6871750f7ccbcb9157f6fa8b,production,blower,3,,images/blower.jpg,,,,,CP,11221,,,survey-html-form,91,2.1.0,405334,P1752265594334,false,0,,,,heater,heater,heater,blower,
687175177ccbcb9157f6fa8d,production,gutter,3,,images/gutter.jpg,,,,,CP,7755,,,survey-html-form,92,2.1.0,413092,P1752265594334,false,0,,,,tube,tube,tube,gutter,
687175237ccbcb9157f6fa8f,production,prune,3,,images/prune.jpg,,,,,CP,11584,,,survey-html-form,93,2.1.0,424679,P1752265594334,false,0,,,,dried raspberries,dried raspberries,dried raspberries,prune,
6871752b7ccbcb9157f6fa91,production,antenna,3,,images/antenna.jpg,,,,,CP,7935,,,survey-html-form,94,2.1.0,432616,P1752265594334,false,0,,,,idk,idk,idk,antenna,
687175307ccbcb9157f6fa93,production,latch,3,,images/latch.jpg,,,,,CP,5355,,,survey-html-form,95,2.1.0,437975,P1752265594334,false,0,,,,lock,lock,lock,latch,
687175347ccbcb9157f6fa95,production,sloth,3,,images/sloth.jpg,,,,,CP,4508,,,survey-html-form,96,2.1.0,442485,P1752265594334,false,0,,,,koala,koala,koala,sloth,
687190a17ccbcb9157f6fa97,,,,,,,,,,,7014271,,,survey-html-form,1,2.1.0,7015398,P1752266041064,,0,5,female,yes,,,,,P003
687190af7ccbcb9157f6fa99,comprehension,wheel,0,3,images/wheel.jpg,images/meat.jpg,images/bowl.jpg,images/wheel.jpg,images/fish.jpg,CP,6961,<h3>Which is the wheel?</h3>,2,html-button-response,3,2.1.0,7030842,P1752266041064,true,0,,,,,,,,
687190b67ccbcb9157f6fa9b,comprehension,ball,0,3,images/ball.jpg,images/snack.jpg,images/peach.jpg,images/ball.jpg,images/pen.jpg,CP,6697,<h3>Which is the ball?</h3>,2,html-button-response,4,2.1.0,7037544,P1752266041064,true,0,,,,,,,,
687190c17ccbcb9157f6fa9d,comprehension,elbow,1,3,images/elbow.jpg,images/arm.jpg,images/gorilla.jpg,images/elbow.jpg,images/bed.jpg,CP,8430,<h3>Which is the elbow?</h3>,2,html-button-response,6,2.1.0,7048508,P1752266041064,true,0,,,,,,,,
687190c67ccbcb9157f6fa9f,comprehension,fox,1,1,images/fox.jpg,images/fox.jpg,images/harmonica.jpg,images/reindeer.jpg,images/wolf.jpg,CP,5280,<h3>Which is the fox?</h3>,0,html-button-response,7,2.1.0,7053793,P1752266041064,true,0,,,,,,,,
687190ca7ccbcb9157f6faa1,comprehension,cake,1,4,images/cake.jpg,images/dessert.jpg,images/battery.jpg,images/refrigerator.jpg,images/cake.jpg,CP,3261,<h3>Which is the cake?</h3>,3,html-button-response,8,2.1.0,7057057,P1752266041064,true,0,,,,,,,,
687190d07ccbcb9157f6faa3,comprehension,turtle,1,3,images/turtle.jpg,images/railing.jpg,images/horse.jpg,images/turtle.jpg,images/frog.jpg,CP,6145,<h3>Which is the turtle?</h3>,2,html-button-response,9,2.1.0,7063207,P1752266041064,true,0,,,,,,,,
687190d47ccbcb9157f6faa5,comprehension,squirrel,1,3,images/squirrel.jpg,images/eagle.jpg,images/monkey.jpg,images/squirrel.jpg,images/shorts.jpg,CP,4529,<h3>Which is the squirrel?</h3>,2,html-button-response,10,2.1.0,7067740,P1752266041064,true,0,,,,,,,,
687190d97ccbcb9157f6faa7,comprehension,sprinkler,1,2,images/sprinkler.jpg,images/flower.jpg,images/sprinkler.jpg,images/sparkler.jpg,images/charcoal.jpg,CP,4479,<h3>Which is the sprinkler?</h3>,1,html-button-response,11,2.1.0,7072223,P1752266041064,true,0,,,,,,,,
687190dd7ccbcb9157f6faa9,comprehension,watermelon,1,3,images/watermelon.jpg,images/crane.jpg,images/strawberry.jpg,images/watermelon.jpg,images/screwdriver.jpg,CP,3863,<h3>Which is the watermelon?</h3>,2,html-button-response,12,2.1.0,7076089,P1752266041064,true,0,,,,,,,,
687190ea7ccbcb9157f6faab,comprehension,oatmeal,1,3,images/oatmeal.jpg,images/collar.jpg,images/aquarium.jpg,images/oatmeal.jpg,images/cereal.jpg,CP,13446,<h3>Which is the oatmeal?</h3>,3,html-button-response,13,2.1.0,7089539,P1752266041064,false,0,,,,,,,,
687190ef7ccbcb9157f6faad,comprehension,rice,1,4,images/rice.jpg,images/box.jpg,images/dice.jpg,images/bedpost.jpg,images/rice.jpg,CP,4411,<h3>Which is the rice?</h3>,3,html-button-response,14,2.1.0,7093955,P1752266041064,true,0,,,,,,,,
687190f37ccbcb9157f6faaf,comprehension,pie,1,2,images/pie.jpg,images/flashlight.jpg,images/pie.jpg,images/sweater.jpg,images/pizza.jpg,CP,4478,<h3>Which is the pie?</h3>,1,html-button-response,15,2.1.0,7098437,P1752266041064,true,0,,,,,,,,
687190f87ccbcb9157f6fab1,comprehension,scoop,1,1,images/scoop.jpg,images/scoop.jpg,images/sauce.jpg,images/cauliflower.jpg,images/statue.jpg,CP,5080,<h3>Which is the scoop?</h3>,0,html-button-response,16,2.1.0,7103521,P1752266041064,true,0,,,,,,,,
687191027ccbcb9157f6fab3,comprehension,shower,1,1,images/shower.jpg,images/shower.jpg,images/toe.jpg,images/soap.jpg,images/cantaloupe.jpg,CP,9662,<h3>Which is the shower?</h3>,0,html-button-response,17,2.1.0,7113186,P1752266041064,true,0,,,,,,,,
687191057ccbcb9157f6fab5,comprehension,hamster,1,1,images/hamster.jpg,images/hamster.jpg,images/rabbit.jpg,images/skirt.jpg,images/tadpole.jpg,CP,3547,<h3>Which is the hamster?</h3>,0,html-button-response,18,2.1.0,7116736,P1752266041064,true,0,,,,,,,,
6871910b7ccbcb9157f6fab7,comprehension,acorn,2,2,images/acorn.jpg,images/key.jpg,images/acorn.jpg,images/clothesline.jpg,images/coconut.jpg,CP,5329,<h3>Which is the acorn?</h3>,1,html-button-response,19,2.1.0,7122069,P1752266041064,true,0,,,,,,,,
6871910f7ccbcb9157f6fab9,comprehension,blender,2,1,images/blender.jpg,images/blender.jpg,images/blind.jpg,images/trampoline.jpg,images/mailbox.jpg,CP,4412,<h3>Which is the blender?</h3>,0,html-button-response,20,2.1.0,7126484,P1752266041064,true,0,,,,,,,,
687191277ccbcb9157f6fabb,comprehension,saddle,2,3,images/saddle.jpg,images/handle.jpg,images/broccoli.jpg,images/saddle.jpg,images/figurine.jpg,CP,24279,<h3>Which is the saddle?</h3>,2,html-button-response,21,2.1.0,7150768,P1752266041064,true,0,,,,,,,,
6871912e7ccbcb9157f6fabd,comprehension,bulldozer,2,3,images/bulldozer.jpg,images/eggplant.jpg,images/tractor.jpg,images/bulldozer.jpg,images/orange.jpg,CP,6926,<h3>Which is the bulldozer?</h3>,2,html-button-response,22,2.1.0,7157697,P1752266041064,true,0,,,,,,,,
687191327ccbcb9157f6fabf,comprehension,fan,2,3,images/fan.jpg,images/chipmunk.jpg,images/album.jpg,images/fan.jpg,images/boulder.jpg,CP,3698,<h3>Which is the fan?</h3>,2,html-button-response,23,2.1.0,7161397,P1752266041064,true,0,,,,,,,,
687191377ccbcb9157f6fac1,comprehension,koala,2,4,images/koala.jpg,images/bee.jpg,images/backscratcher.jpg,images/panda.jpg,images/koala.jpg,CP,4732,<h3>Which is the koala?</h3>,3,html-button-response,24,2.1.0,7166131,P1752266041064,true,0,,,,,,,,
687191417ccbcb9157f6fac3,comprehension,treasure,2,3,images/treasure.jpg,images/gift.jpg,images/rope.jpg,images/treasure.jpg,images/lamp.jpg,CP,10646,<h3>Which is the treasure?</h3>,2,html-button-response,25,2.1.0,7176781,P1752266041064,true,0,,,,,,,,
687191497ccbcb9157f6fac5,comprehension,squash,2,4,images/squash.jpg,images/pumpkin.jpg,images/branch.jpg,images/gazelle.jpg,images/squash.jpg,CP,7579,<h3>Which is the squash?</h3>,3,html-button-response,26,2.1.0,7184363,P1752266041064,true,0,,,,,,,,
687191547ccbcb9157f6fac7,comprehension,candlestick,2,4,images/candlestick.jpg,images/orangutan.jpg,images/candle.jpg,images/egg.jpg,images/candlestick.jpg,CP,11196,<h3>Which is the candlestick?</h3>,1,html-button-response,27,2.1.0,7195563,P1752266041064,false,0,,,,,,,,
6871917a7ccbcb9157f6fac9,comprehension,pitcher,2,3,images/pitcher.jpg,images/batter.jpg,images/medal.jpg,images/pitcher.jpg,images/tumbleweed.jpg,CP,38108,<h3>Which is the pitcher?</h3>,1,html-button-response,28,2.1.0,7233675,P1752266041064,false,0,,,,,,,,
6871919c7ccbcb9157f6facb,comprehension,ski,2,4,images/ski.jpg,images/suitcase.jpg,images/ice.jpg,images/pincushion.jpg,images/ski.jpg,CP,34158,<h3>Which is the ski?</h3>,3,html-button-response,29,2.1.0,7267837,P1752266041064,true,0,,,,,,,,
687191c37ccbcb9157f6facd,comprehension,cassette,2,4,images/cassette.jpg,images/tape.jpg,images/hammock.jpg,images/book.jpg,images/cassette.jpg,CP,38179,<h3>Which is the cassette?</h3>,1,html-button-response,30,2.1.0,7306017,P1752266041064,false,0,,,,,,,,
687191c87ccbcb9157f6facf,comprehension,snail,2,3,images/snail.jpg,images/visor.jpg,images/worm.jpg,images/snail.jpg,images/cow.jpg,CP,5582,<h3>Which is the snail?</h3>,2,html-button-response,31,2.1.0,7311600,P1752266041064,true,0,,,,,,,,
687191d17ccbcb9157f6fad1,comprehension,fruitcake,3,2,images/fruitcake.jpg,images/dough.jpg,images/fruitcake.jpg,images/fudge.jpg,images/anvil.jpg,CP,8433,<h3>Which is the fruitcake?</h3>,1,html-button-response,32,2.1.0,7320035,P1752266041064,true,0,,,,,,,,
687191f17ccbcb9157f6fad3,comprehension,coaster,3,3,images/coaster.jpg,images/card.jpg,images/painting.jpg,images/coaster.jpg,images/hummingbird.jpg,CP,32293,<h3>Which is the coaster?</h3>,0,html-button-response,33,2.1.0,7352332,P1752266041064,false,0,,,,,,,,
6871920b7ccbcb9157f6fad5,comprehension,cloak,3,1,images/cloak.jpg,images/cloak.jpg,images/jellyfish.jpg,images/hood.jpg,images/cinnamon.jpg,CP,26475,<h3>Which is the cloak?</h3>,0,html-button-response,34,2.1.0,7378811,P1752266041064,true,0,,,,,,,,
6871921f7ccbcb9157f6fad7,comprehension,bouquet,3,1,images/bouquet.jpg,images/bouquet.jpg,images/centerpiece.jpg,images/bandanna.jpg,images/submarine.jpg,CP,19198,<h3>Which is the bouquet?</h3>,0,html-button-response,35,2.1.0,7398010,P1752266041064,true,0,,,,,,,,
687192267ccbcb9157f6fad9,comprehension,oil,3,1,images/oil.jpg,images/oil.jpg,images/bassinet.jpg,images/grain.jpg,images/gel.jpg,CP,7398,<h3>Which is the oil?</h3>,0,html-button-response,36,2.1.0,7405412,P1752266041064,true,0,,,,,,,,
687192407ccbcb9157f6fadb,comprehension,blower,3,4,images/blower.jpg,images/burner.jpg,images/buggy.jpg,images/papaya.jpg,images/blower.jpg,CP,26311,<h3>Which is the blower?</h3>,3,html-button-response,37,2.1.0,7431725,P1752266041064,true,0,,,,,,,,
6871924b7ccbcb9157f6fadd,comprehension,clothespin,3,1,images/clothespin.jpg,images/clothespin.jpg,images/toothpick.jpg,images/volleyball.jpg,images/fondue.jpg,CP,10678,<h3>Which is the clothespin?</h3>,1,html-button-response,38,2.1.0,7442408,P1752266041064,false,0,,,,,,,,
687192547ccbcb9157f6fadf,comprehension,sloth,3,1,images/sloth.jpg,images/sloth.jpg,images/clam.jpg,images/incense.jpg,images/donkey.jpg,CP,8661,<h3>Which is the sloth?</h3>,0,html-button-response,39,2.1.0,7451074,P1752266041064,true,0,,,,,,,,
6871925d7ccbcb9157f6fae1,comprehension,tulip,3,4,images/tulip.jpg,images/hubcap.jpg,images/glove.jpg,images/rose.jpg,images/tulip.jpg,CP,9627,<h3>Which is the tulip?</h3>,3,html-button-response,40,2.1.0,7460705,P1752266041064,true,0,,,,,,,,
6871926d7ccbcb9157f6fae3,comprehension,prune,3,3,images/prune.jpg,images/jukebox.jpg,images/raisin.jpg,images/prune.jpg,images/headrest.jpg,CP,15782,<h3>Which is the prune?</h3>,1,html-button-response,41,2.1.0,7476489,P1752266041064,false,0,,,,,,,,
687192a17ccbcb9157f6fae5,comprehension,locker,3,4,images/locker.jpg,images/gargoyle.jpg,images/cabinet.jpg,images/basket.jpg,images/locker.jpg,CP,52023,<h3>Which is the locker?</h3>,3,html-button-response,42,2.1.0,7528515,P1752266041064,true,0,,,,,,,,
687192c37ccbcb9157f6fae7,comprehension,buffet,3,2,images/buffet.jpg,images/rhubarb.jpg,images/buffet.jpg,images/crib.jpg,images/counter.jpg,CP,33883,<h3>Which is the buffet?</h3>,1,html-button-response,43,2.1.0,7562399,P1752266041064,true,0,,,,,,,,
687192d47ccbcb9157f6fae9,comprehension,latch,3,1,images/latch.jpg,images/latch.jpg,images/lock.jpg,images/umbrella.jpg,images/microwave.jpg,CP,16609,<h3>Which is the latch?</h3>,1,html-button-response,44,2.1.0,7579012,P1752266041064,false,0,,,,,,,,
687192da7ccbcb9157f6faeb,comprehension,waterwheel,4,2,images/waterwheel.jpg,images/boa.jpg,images/waterwheel.jpg,images/target.jpg,images/pinwheel.jpg,CP,6482,<h3>Which is the waterwheel?</h3>,1,html-button-response,45,2.1.0,7585496,P1752266041064,true,0,,,,,,,,
687192ec7ccbcb9157f6faed,comprehension,gondola,4,2,images/gondola.jpg,images/clipboard.jpg,images/gondola.jpg,images/trolley.jpg,images/charger.jpg,CP,17794,<h3>Which is the gondola?</h3>,2,html-button-response,46,2.1.0,7603295,P1752266041064,false,0,,,,,,,,
687193037ccbcb9157f6faef,comprehension,parsley,4,2,images/parsley.jpg,images/basil.jpg,images/parsley.jpg,images/kayak.jpg,images/tiara.jpg,CP,22612,<h3>Which is the parsley?</h3>,0,html-button-response,47,2.1.0,7625909,P1752266041064,false,0,,,,,,,,
687193207ccbcb9157f6faf1,comprehension,scaffolding,4,3,images/scaffolding.jpg,images/antelope.jpg,images/satellite.jpg,images/scaffolding.jpg,images/veil.jpg,CP,29793,<h3>Which is the scaffolding?</h3>,0,html-button-response,48,2.1.0,7655706,P1752266041064,false,0,,,,,,,,
687193317ccbcb9157f6faf3,comprehension,turbine,4,2,images/turbine.jpg,images/pesto.jpg,images/turbine.jpg,images/generator.jpg,images/tab.jpg,CP,16677,<h3>Which is the turbine?</h3>,2,html-button-response,49,2.1.0,7672387,P1752266041064,false,0,,,,,,,,
6871933f7ccbcb9157f6faf5,comprehension,tapestry,4,3,images/tapestry.jpg,images/backdrop.jpg,images/leggings.jpg,images/tapestry.jpg,images/forklift.jpg,CP,14146,<h3>Which is the tapestry?</h3>,0,html-button-response,50,2.1.0,7686536,P1752266041064,false,0,,,,,,,,
687193447ccbcb9157f6faf7,comprehension,pistachio,4,4,images/pistachio.jpg,images/taco.jpg,images/avocado.jpg,images/bagpipe.jpg,images/pistachio.jpg,CP,4747,<h3>Which is the pistachio?</h3>,3,html-button-response,51,2.1.0,7691285,P1752266041064,true,0,,,,,,,,
6871934b7ccbcb9157f6faf9,comprehension,mulch,4,4,images/mulch.jpg,images/lantern.jpg,images/clarinet.jpg,images/compost.jpg,images/mulch.jpg,CP,6781,<h3>Which is the mulch?</h3>,3,html-button-response,52,2.1.0,7698067,P1752266041064,true,0,,,,,,,,
687193557ccbcb9157f6fafb,comprehension,aloe,4,3,images/aloe.jpg,images/banner.jpg,images/bracket.jpg,images/aloe.jpg,images/cactus.jpg,CP,9865,<h3>Which is the aloe?</h3>,2,html-button-response,53,2.1.0,7707933,P1752266041064,true,0,,,,,,,,
6871935b7ccbcb9157f6fafd,comprehension,taillight,4,4,images/taillight.jpg,images/bumper.jpg,images/luggage.jpg,images/sushi.jpg,images/taillight.jpg,CP,6251,<h3>Which is the taillight?</h3>,3,html-button-response,54,2.1.0,7714185,P1752266041064,true,0,,,,,,,,
687193617ccbcb9157f6faff,comprehension,swordfish,4,4,images/swordfish.jpg,images/graffiti.jpg,images/catfish.jpg,images/leopard.jpg,images/swordfish.jpg,CP,6230,<h3>Which is the swordfish?</h3>,1,html-button-response,55,2.1.0,7720418,P1752266041064,false,0,,,,,,,,
687193677ccbcb9157f6fb01,comprehension,prism,4,2,images/prism.jpg,images/subway.jpg,images/prism.jpg,images/radar.jpg,images/chinchilla.jpg,CP,5914,<h3>Which is the prism?</h3>,1,html-button-response,56,2.1.0,7726335,P1752266041064,true,0,,,,,,,,
6871936b7ccbcb9157f6fb03,comprehension,cymbal,4,1,images/cymbal.jpg,images/cymbal.jpg,images/kaleidoscope.jpg,images/ferry.jpg,images/mallet.jpg,CP,4463,<h3>Which is the cymbal?</h3>,0,html-button-response,57,2.1.0,7730801,P1752266041064,true,0,,,,,,,,
687193837ccbcb9157f6fb05,production,ant,0,,images/ant.jpg,,,,,CP,14698,,,survey-html-form,60,2.1.0,7754699,P1752266041064,true,0,,,,ant,ant,ant,ant,
687193887ccbcb9157f6fb07,production,duck,0,,images/duck.jpg,,,,,CP,4499,,,survey-html-form,61,2.1.0,7759202,P1752266041064,true,0,,,,duck,duck,duck,duck,
687193ab7ccbcb9157f6fb09,production,seagull,1,,images/seagull.jpg,,,,,CP,32789,,,survey-html-form,63,2.1.0,7793989,P1752266041064,false,0,,,,idk,idk,idk,seagull,
687193b27ccbcb9157f6fb0b,production,lollipop,1,,images/lollipop.jpg,,,,,CP,7305,,,survey-html-form,64,2.1.0,7801299,P1752266041064,true,0,,,,lollipop,lollipop,lollipop,lollipop,
687193bb7ccbcb9157f6fb0d,production,otter,1,,images/otter.jpg,,,,,CP,9456,,,survey-html-form,65,2.1.0,7810759,P1752266041064,true,0,,,,otter,otter,otter,otter,
687193c07ccbcb9157f6fb0f,production,turkey,1,,images/turkey.jpg,,,,,CP,4516,,,survey-html-form,66,2.1.0,7815278,P1752266041064,true,0,,,,turkey,turkey,turkey,turkey,
687193c67ccbcb9157f6fb11,production,cheese,1,,images/cheese.jpg,,,,,CP,5682,,,survey-html-form,67,2.1.0,7820964,P1752266041064,false,0,,,,cake,cake,cake,cheese,
687193d87ccbcb9157f6fb13,production,puddle,1,,images/puddle.jpg,,,,,CP,18648,,,survey-html-form,68,2.1.0,7839615,P1752266041064,false,0,,,,idk,idk,idk,puddle,
687193f47ccbcb9157f6fb15,production,freezer,1,,images/freezer.jpg,,,,,CP,27471,,,survey-html-form,69,2.1.0,7867089,P1752266041064,false,0,,,,box,box,box,freezer,
687193fb7ccbcb9157f6fb17,production,potato,1,,images/potato.jpg,,,,,CP,6909,,,survey-html-form,70,2.1.0,7874002,P1752266041064,false,0,,,,mango,mango,mango,potato,
687194117ccbcb9157f6fb19,production,horn,1,,images/horn.jpg,,,,,CP,22805,,,survey-html-form,71,2.1.0,7896811,P1752266041064,false,0,,,,idk,idk,idk,horn,
687194267ccbcb9157f6fb1b,production,marshmallow,1,,images/marshmallow.jpg,,,,,CP,20560,,,survey-html-form,72,2.1.0,7917375,P1752266041064,false,0,,,,idk,idk,idk,marshmallow,
687194457ccbcb9157f6fb1d,,,,,,,,,,,24091,,,survey-html-form,1,2.1.0,25136,P1752273964745,,0,5,female,yes,,,,,P004
687194507ccbcb9157f6fb1f,production,duck,0,,images/duck.jpg,,,,,PC,6433,,,survey-html-form,3,2.1.0,35553,P1752273964745,true,0,,,,duck,duck,duck,duck,
687194537ccbcb9157f6fb21,production,wheel,0,,images/wheel.jpg,,,,,PC,3609,,,survey-html-form,4,2.1.0,39167,P1752273964745,true,0,,,,wheel,wheel,wheel,wheel,
687194607ccbcb9157f6fb23,production,squirrel,1,,images/squirrel.jpg,,,,,PC,10086,,,survey-html-form,6,2.1.0,51254,P1752273964745,true,0,,,,squirrel,squirrel,squirrel,squirrel,
687194647ccbcb9157f6fb25,production,hamster,1,,images/hamster.jpg,,,,,PC,4608,,,survey-html-form,7,2.1.0,55866,P1752273964745,true,0,,,,hamster,hamster,hamster,hamster,
687194677ccbcb9157f6fb27,production,turkey,1,,images/turkey.jpg,,,,,PC,2985,,,survey-html-form,8,2.1.0,58855,P1752273964745,true,0,,,,turkey,turkey,turkey,turkey,
687194707ccbcb9157f6fb29,production,elbow,1,,images/elbow.jpg,,,,,PC,9069,,,survey-html-form,9,2.1.0,67928,P1752273964745,false,0,,,,idk,idk,idk,elbow,
687194767ccbcb9157f6fb2b,production,ship,1,,images/ship.jpg,,,,,PC,5297,,,survey-html-form,10,2.1.0,73229,P1752273964745,true,0,,,,ship,ship,ship,ship,
687194797ccbcb9157f6fb2d,production,cheese,1,,images/cheese.jpg,,,,,PC,3096,,,survey-html-form,11,2.1.0,76330,P1752273964745,false,0,,,,cake,cake,cake,cheese,
687194807ccbcb9157f6fb2f,production,freezer,1,,images/freezer.jpg,,,,,PC,6962,,,survey-html-form,12,2.1.0,83296,P1752273964745,false,0,,,,idk,idk,idk,freezer,
687194847ccbcb9157f6fb31,production,sink,1,,images/sink.jpg,,,,,PC,4085,,,survey-html-form,13,2.1.0,87384,P1752273964745,true,0,,,,sink,sink,sink,sink,
6871948d7ccbcb9157f6fb33,production,sprinkler,1,,images/sprinkler.jpg,,,,,PC,9592,,,survey-html-form,14,2.1.0,96979,P1752273964745,false,0,,,,idk,idk,idk,sprinkler,
687194927ccbcb9157f6fb35,production,carrot,1,,images/carrot.jpg,,,,,PC,4312,,,survey-html-form,15,2.1.0,101294,P1752273964745,true,0,,,,carrot,carrot,carrot,carrot,
687194967ccbcb9157f6fb37,production,horn,1,,images/horn.jpg,,,,,PC,4095,,,survey-html-form,16,2.1.0,105393,P1752273964745,false,0,,,,idk,idk,idk,horn,
6871949a7ccbcb9157f6fb39,production,pie,1,,images/pie.jpg,,,,,PC,4779,,,survey-html-form,17,2.1.0,110176,P1752273964745,true,0,,,,pie,pie,pie,pie,
687194a17ccbcb9157f6fb3b,production,pajamas,1,,images/pajamas.jpg,,,,,PC,6113,,,survey-html-form,18,2.1.0,116292,P1752273964745,false,0,,,,t-shirt,t-shirt,t-shirt,pajamas,
687194a67ccbcb9157f6fb3d,production,oatmeal,1,,images/oatmeal.jpg,,,,,PC,5154,,,survey-html-form,19,2.1.0,121449,P1752273964745,true,0,,,,oatmeal,oatmeal,oatmeal,oatmeal,
687194ab7ccbcb9157f6fb3f,production,koala,2,,images/koala.jpg,,,,,PC,5109,,,survey-html-form,20,2.1.0,126560,P1752273964745,true,0,,,,koala,koala,koala,koala,
687194b07ccbcb9157f6fb41,production,treasure,2,,images/treasure.jpg,,,,,PC,5562,,,survey-html-form,21,2.1.0,132126,P1752273964745,true,0,,,,treasure,treasure,treasure,treasure,
687194bb7ccbcb9157f6fb43,production,teabag,2,,images/teabag.jpg,,,,,PC,10612,,,survey-html-form,22,2.1.0,142741,P1752273964745,false,0,,,,idk,idk,idk,teabag,
687194c17ccbcb9157f6fb45,production,sunflower,2,,images/sunflower.jpg,,,,,PC,6247,,,survey-html-form,23,2.1.0,148992,P1752273964745,true,0,,,,sunflower,sunflower,sunflower,sunflower,
687194c77ccbcb9157f6fb47,production,saddle,2,,images/saddle.jpg,,,,,PC,5917,,,survey-html-form,24,2.1.0,154912,P1752273964745,true,0,,,,saddle,saddle,saddle,saddle,
687194cf7ccbcb9157f6fb49,production,ski,2,,images/ski.jpg,,,,,PC,7373,,,survey-html-form,25,2.1.0,162289,P1752273964745,false,0,,,,idk,idk,idk,ski,
687194d47ccbcb9157f6fb4b,production,cornbread,2,,images/cornbread.jpg,,,,,PC,5145,,,survey-html-form,26,2.1.0,167437,P1752273964745,false,0,,,,idk,idk,idk,cornbread,
687194d87ccbcb9157f6fb4d,production,acorn,2,,images/acorn.jpg,,,,,PC,4613,,,survey-html-form,27,2.1.0,172054,P1752273964745,true,0,,,,acorn,acorn,acorn,acorn,
687194db7ccbcb9157f6fb4f,production,fan,2,,images/fan.jpg,,,,,PC,3129,,,survey-html-form,28,2.1.0,175187,P1752273964745,true,0,,,,fan,fan,fan,fan,
687194e17ccbcb9157f6fb51,production,omelet,2,,images/omelet.jpg,,,,,PC,5538,,,survey-html-form,29,2.1.0,180728,P1752273964745,true,0,,,,omelet,omelet,omelet,omelet,
687194e67ccbcb9157f6fb53,production,trumpet,2,,images/trumpet.jpg,,,,,PC,4504,,,survey-html-form,30,2.1.0,185236,P1752273964745,true,0,,,,trumpet,trumpet,trumpet,trumpet,
687194ed7ccbcb9157f6fb55,production,silverware,2,,images/silverware.jpg,,,,,PC,7695,,,survey-html-form,31,2.1.0,192935,P1752273964745,false,0,,,,idk,idk,idk,silverware,
687194f57ccbcb9157f6fb57,production,pitcher,2,,images/pitcher.jpg,,,,,PC,7264,,,survey-html-form,32,2.1.0,200202,P1752273964745,false,0,,,,idk,idk,idk,pitcher,
687194fa7ccbcb9157f6fb59,production,candlestick,2,,images/candlestick.jpg,,,,,PC,5396,,,survey-html-form,33,2.1.0,205602,P1752273964745,false,0,,,,idk,idk,idk,candlestick,
687195087ccbcb9157f6fb5b,production,oil,3,,images/oil.jpg,,,,,PC,14351,,,survey-html-form,34,2.1.0,219957,P1752273964745,true,0,,,,idk/oil,idk/oil,oil,oil,
687195117ccbcb9157f6fb5d,production,sandbag,3,,images/sandbag.jpg,,,,,PC,8522,,,survey-html-form,35,2.1.0,228482,P1752273964745,false,0,,,,idk,idk,idk,sandbag,
6871951e7ccbcb9157f6fb5f,production,stump,3,,images/stump.jpg,,,,,PC,13205,,,survey-html-form,36,2.1.0,241691,P1752273964745,false,0,,,,branch,branch,branch,stump,
687195237ccbcb9157f6fb61,production,antenna,3,,images/antenna.jpg,,,,,PC,5237,,,survey-html-form,37,2.1.0,246932,P1752273964745,false,0,,,,idk,idk,idk,antenna,
687195297ccbcb9157f6fb63,production,telescope,3,,images/telescope.jpg,,,,,PC,5466,,,survey-html-form,38,2.1.0,252401,P1752273964745,true,0,,,,telescope,telescope,telescope,telescope,
6871953b7ccbcb9157f6fb65,production,bouquet,3,,images/bouquet.jpg,,,,,PC,17789,,,survey-html-form,39,2.1.0,270194,P1752273964745,false,0,,,,flowers/idk,flowers/idk,idk,bouquet,
687195517ccbcb9157f6fb67,production,net,3,,images/net.jpg,,,,,PC,22293,,,survey-html-form,40,2.1.0,292491,P1752273964745,true,0,,,,rope/net,rope/net,net,net,
687195587ccbcb9157f6fb69,production,spatula,3,,images/spatula.jpg,,,,,PC,6732,,,survey-html-form,41,2.1.0,299227,P1752273964745,false,0,,,,idk,idk,idk,spatula,
687195647ccbcb9157f6fb6b,production,buffet,3,,images/buffet.jpg,,,,,PC,12319,,,survey-html-form,42,2.1.0,311550,P1752273964745,false,0,,,,food/feast,food/feast,feast,buffet,
6871956b7ccbcb9157f6fb6d,production,coaster,3,,images/coaster.jpg,,,,,PC,7614,,,survey-html-form,43,2.1.0,319167,P1752273964745,false,0,,,,magnets,magnets,magnets,coaster,
687195717ccbcb9157f6fb6f,production,blower,3,,images/blower.jpg,,,,,PC,5370,,,survey-html-form,44,2.1.0,324541,P1752273964745,false,0,,,,idk,idk,idk,blower,
687195777ccbcb9157f6fb71,production,sloth,3,,images/sloth.jpg,,,,,PC,6520,,,survey-html-form,45,2.1.0,331065,P1752273964745,true,0,,,,sloth,sloth,sloth,sloth,
6871957d7ccbcb9157f6fb73,production,footbath,3,,images/footbath.jpg,,,,,PC,5123,,,survey-html-form,46,2.1.0,336190,P1752273964745,false,0,,,,idk,idk,idk,footbath,
687195817ccbcb9157f6fb75,production,latch,3,,images/latch.jpg,,,,,PC,4144,,,survey-html-form,47,2.1.0,340337,P1752273964745,true,0,,,,latch,latch,latch,latch,
687195857ccbcb9157f6fb77,production,artichoke,4,,images/artichoke.jpg,,,,,PC,4623,,,survey-html-form,48,2.1.0,344963,P1752273964745,false,0,,,,idk,idk,idk,artichoke,
6871958a7ccbcb9157f6fb79,production,sauerkraut,4,,images/sauerkraut.jpg,,,,,PC,5155,,,survey-html-form,49,2.1.0,350122,P1752273964745,false,0,,,,idk,idk,idk,sauerkraut,
687195977ccbcb9157f6fb7b,production,flan,4,,images/flan.jpg,,,,,PC,12432,,,survey-html-form,50,2.1.0,362558,P1752273964745,false,0,,,,cake/honeycake,cake/honeycake,honeycake,flan,
6871959f7ccbcb9157f6fb7d,production,parsley,4,,images/parsley.jpg,,,,,PC,7848,,,survey-html-form,51,2.1.0,370412,P1752273964745,false,0,,,,leaves,leaves,leaves,parsley,
687195a47ccbcb9157f6fb7f,production,stretcher,4,,images/stretcher.jpg,,,,,PC,5262,,,survey-html-form,52,2.1.0,375678,P1752273964745,false,0,,,,idk,idk,idk,stretcher,
687195a97ccbcb9157f6fb81,production,waterwheel,4,,images/waterwheel.jpg,,,,,PC,5248,,,survey-html-form,53,2.1.0,380930,P1752273964745,true,0,,,,waterwheel,waterwheel,waterwheel,waterwheel,
687195ad7ccbcb9157f6fb83,production,bamboo,4,,images/bamboo.jpg,,,,,PC,3605,,,survey-html-form,54,2.1.0,384538,P1752273964745,true,0,,,,bamboo,bamboo,bamboo,bamboo,
687195bf7ccbcb9157f6fb85,production,mulch,4,,images/mulch.jpg,,,,,PC,18453,,,survey-html-form,55,2.1.0,402995,P1752273964745,false,0,,,,tanbark,tanbark,tanbark,mulch,
687195c67ccbcb9157f6fb87,production,pistachio,4,,images/pistachio.jpg,,,,,PC,6318,,,survey-html-form,56,2.1.0,409318,P1752273964745,true,0,,,,pistachio,pistachio,pistachio,pistachio,
687195cf7ccbcb9157f6fb89,production,kimono,4,,images/kimono.jpg,,,,,PC,9089,,,survey-html-form,57,2.1.0,418410,P1752273964745,false,0,,,,people,people,people,kimono,
687195d77ccbcb9157f6fb8b,production,gondola,4,,images/gondola.jpg,,,,,PC,8479,,,survey-html-form,58,2.1.0,426893,P1752273964745,false,0,,,,boat,boat,boat,gondola,
687195db7ccbcb9157f6fb8d,production,cymbal,4,,images/cymbal.jpg,,,,,PC,3771,,,survey-html-form,59,2.1.0,430668,P1752273964745,true,0,,,,cymbal,cymbal,cymbal,cymbal,
687195e07ccbcb9157f6fb8f,production,cork,4,,images/cork.jpg,,,,,PC,5288,,,survey-html-form,60,2.1.0,435959,P1752273964745,false,0,,,,idk,idk,idk,cork,
687195e87ccbcb9157f6fb91,production,sorbet,4,,images/sorbet.jpg,,,,,PC,7657,,,survey-html-form,61,2.1.0,443619,P1752273964745,false,0,,,,idk,idk,idk,sorbet,
687195ef7ccbcb9157f6fb93,comprehension,ball,0,2,images/ball.jpg,images/peach.jpg,images/ball.jpg,images/pen.jpg,images/snack.jpg,PC,2847,<h3>Which is the ball?</h3>,1,html-button-response,64,2.1.0,450953,P1752273964745,true,0,,,,,,,,
687195f27ccbcb9157f6fb95,comprehension,ant,0,3,images/ant.jpg,images/mint.jpg,images/muffin.jpg,images/ant.jpg,images/raspberry.jpg,PC,2546,<h3>Which is the ant?</h3>,2,html-button-response,65,2.1.0,453503,P1752273964745,true,0,,,,,,,,
687195f67ccbcb9157f6fb97,comprehension,lollipop,1,2,images/lollipop.jpg,images/crumb.jpg,images/lollipop.jpg,images/doorbell.jpg,images/candy.jpg,PC,2679,<h3>Which is the lollipop?</h3>,1,html-button-response,67,2.1.0,458100,P1752273964745,true,0,,,,,,,,
687195f87ccbcb9157f6fb99,comprehension,rice,1,2,images/rice.jpg,images/bedpost.jpg,images/rice.jpg,images/dice.jpg,images/box.jpg,PC,1997,<h3>Which is the rice?</h3>,1,html-button-response,68,2.1.0,460099,P1752273964745,true,0,,,,,,,,
687195fa7ccbcb9157f6fb9b,comprehension,marshmallow,1,2,images/marshmallow.jpg,images/rooster.jpg,images/marshmallow.jpg,images/snowball.jpg,images/dryer.jpg,PC,2098,<h3>Which is the marshmallow?</h3>,1,html-button-response,69,2.1.0,462200,P1752273964745,true,0,,,,,,,,
687195fc7ccbcb9157f6fb9d,comprehension,watermelon,1,2,images/watermelon.jpg,images/screwdriver.jpg,images/watermelon.jpg,images/strawberry.jpg,images/crane.jpg,PC,1750,<h3>Which is the watermelon?</h3>,1,html-button-response,70,2.1.0,463953,P1752273964745,true,0,,,,,,,,
687196007ccbcb9157f6fb9f,comprehension,scoop,1,4,images/scoop.jpg,images/statue.jpg,images/cauliflower.jpg,images/sauce.jpg,images/scoop.jpg,PC,3793,<h3>Which is the scoop?</h3>,3,html-button-response,71,2.1.0,467749,P1752273964745,true,0,,,,,,,,
6871960d7ccbcb9157f6fba1,comprehension,puddle,1,1,images/puddle.jpg,images/puddle.jpg,images/baseball.jpg,images/bubble.jpg,images/salami.jpg,PC,12964,<h3>Which is the puddle?</h3>,1,html-button-response,72,2.1.0,480715,P1752273964745,false,0,,,,,,,,
6871960f7ccbcb9157f6fba3,comprehension,turtle,1,2,images/turtle.jpg,images/railing.jpg,images/turtle.jpg,images/frog.jpg,images/horse.jpg,PC,2214,<h3>Which is the turtle?</h3>,1,html-button-response,73,2.1.0,482931,P1752273964745,true,0,,,,,,,,
687196127ccbcb9157f6fba5,comprehension,cake,1,3,images/cake.jpg,images/refrigerator.jpg,images/battery.jpg,images/cake.jpg,images/dessert.jpg,PC,2516,<h3>Which is the cake?</h3>,2,html-button-response,74,2.1.0,485450,P1752273964745,true,0,,,,,,,,
687196147ccbcb9157f6fba7,comprehension,otter,1,4,images/otter.jpg,images/goose.jpg,images/tablecloth.jpg,images/beaver.jpg,images/otter.jpg,PC,2493,<h3>Which is the otter?</h3>,3,html-button-response,75,2.1.0,487947,P1752273964745,true,0,,,,,,,,
687196177ccbcb9157f6fba9,comprehension,potato,1,1,images/potato.jpg,images/potato.jpg,images/pot.jpg,images/dragonfly.jpg,images/glasses.jpg,PC,2449,<h3>Which is the potato?</h3>,0,html-button-response,76,2.1.0,490398,P1752273964745,true,0,,,,,,,,
687196187ccbcb9157f6fbab,comprehension,fox,1,2,images/fox.jpg,images/wolf.jpg,images/fox.jpg,images/reindeer.jpg,images/harmonica.jpg,PC,1780,<h3>Which is the fox?</h3>,1,html-button-response,77,2.1.0,492180,P1752273964745,true,0,,,,,,,,
6871961a7ccbcb9157f6fbad,comprehension,seagull,1,2,images/seagull.jpg,images/pigeon.jpg,images/seagull.jpg,images/lobster.jpg,images/perfume.jpg,PC,1799,<h3>Which is the seagull?</h3>,1,html-button-response,78,2.1.0,493980,P1752273964745,true,0,,,,,,,,
6871961f7ccbcb9157f6fbaf,comprehension,shower,1,3,images/shower.jpg,images/cantaloupe.jpg,images/toe.jpg,images/shower.jpg,images/soap.jpg,PC,4631,<h3>Which is the shower?</h3>,2,html-button-response,79,2.1.0,498613,P1752273964745,true,0,,,,,,,,
687196227ccbcb9157f6fbb1,comprehension,blender,2,4,images/blender.jpg,images/blind.jpg,images/trampoline.jpg,images/mailbox.jpg,images/blender.jpg,PC,2731,<h3>Which is the blender?</h3>,3,html-button-response,80,2.1.0,501346,P1752273964745,true,0,,,,,,,,
687196267ccbcb9157f6fbb3,comprehension,teapot,2,3,images/teapot.jpg,images/teacup.jpg,images/brake.jpg,images/teapot.jpg,images/bookmark.jpg,PC,3900,<h3>Which is the teapot?</h3>,2,html-button-response,81,2.1.0,505248,P1752273964745,true,0,,,,,,,,
687196287ccbcb9157f6fbb5,comprehension,hopscotch,2,1,images/hopscotch.jpg,images/hopscotch.jpg,images/chalk.jpg,images/funnel.jpg,images/jug.jpg,PC,2946,<h3>Which is the hopscotch?</h3>,0,html-button-response,82,2.1.0,508197,P1752273964745,true,0,,,,,,,,
6871962c7ccbcb9157f6fbb7,comprehension,bulldozer,2,3,images/bulldozer.jpg,images/tractor.jpg,images/eggplant.jpg,images/bulldozer.jpg,images/orange.jpg,PC,3245,<h3>Which is the bulldozer?</h3>,2,html-button-response,83,2.1.0,511445,P1752273964745,true,0,,,,,,,,
6871962e7ccbcb9157f6fbb9,comprehension,carousel,2,2,images/carousel.jpg,images/melon.jpg,images/carousel.jpg,images/dish.jpg,images/carriage.jpg,PC,1934,<h3>Which is the carousel?</h3>,1,html-button-response,84,2.1.0,513381,P1752273964745,true,0,,,,,,,,
687196317ccbcb9157f6fbbb,comprehension,squash,2,2,images/squash.jpg,images/gazelle.jpg,images/squash.jpg,images/pumpkin.jpg,images/branch.jpg,PC,2845,<h3>Which is the squash?</h3>,1,html-button-response,85,2.1.0,516230,P1752273964745,true,0,,,,,,,,
687196347ccbcb9157f6fbbd,comprehension,foam,2,2,images/foam.jpg,images/quilt.jpg,images/foam.jpg,images/asparagus.jpg,images/float.jpg,PC,3014,<h3>Which is the foam?</h3>,1,html-button-response,86,2.1.0,519248,P1752273964745,true,0,,,,,,,,
687196387ccbcb9157f6fbbf,comprehension,caramel,2,4,images/caramel.jpg,images/olive.jpg,images/warthog.jpg,images/amber.jpg,images/caramel.jpg,PC,4460,<h3>Which is the caramel?</h3>,3,html-button-response,87,2.1.0,523710,P1752273964745,true,0,,,,,,,,
687196437ccbcb9157f6fbc1,comprehension,typewriter,2,2,images/typewriter.jpg,images/drumstick.jpg,images/typewriter.jpg,images/sunglasses.jpg,images/printer.jpg,PC,10848,<h3>Which is the typewriter?</h3>,3,html-button-response,88,2.1.0,534559,P1752273964745,false,0,,,,,,,,
687196477ccbcb9157f6fbc3,comprehension,pump,2,1,images/pump.jpg,images/pump.jpg,images/plug.jpg,images/scarf.jpg,images/coat.jpg,PC,4000,<h3>Which is the pump?</h3>,0,html-button-response,89,2.1.0,538560,P1752273964745,true,0,,,,,,,,
6871964a7ccbcb9157f6fbc5,comprehension,map,2,3,images/map.jpg,images/dishwasher.jpg,images/marker.jpg,images/map.jpg,images/ruby.jpg,PC,3264,<h3>Which is the map?</h3>,2,html-button-response,90,2.1.0,541826,P1752273964745,true,0,,,,,,,,
6871964d7ccbcb9157f6fbc7,comprehension,cassette,2,2,images/cassette.jpg,images/hammock.jpg,images/cassette.jpg,images/book.jpg,images/tape.jpg,PC,3148,<h3>Which is the cassette?</h3>,0,html-button-response,91,2.1.0,544976,P1752273964745,false,0,,,,,,,,
687196507ccbcb9157f6fbc9,comprehension,snail,2,3,images/snail.jpg,images/cow.jpg,images/visor.jpg,images/snail.jpg,images/worm.jpg,PC,2266,<h3>Which is the snail?</h3>,2,html-button-response,92,2.1.0,547244,P1752273964745,true,0,,,,,,,,
687196557ccbcb9157f6fbcb,comprehension,tuxedo,3,3,images/tuxedo.jpg,images/moccasin.jpg,images/suit.jpg,images/tuxedo.jpg,images/stroller.jpg,PC,5080,<h3>Which is the tuxedo?</h3>,1,html-button-response,93,2.1.0,552327,P1752273964745,false,0,,,,,,,,
687196577ccbcb9157f6fbcd,comprehension,tulip,3,4,images/tulip.jpg,images/glove.jpg,images/rose.jpg,images/hubcap.jpg,images/tulip.jpg,PC,2695,<h3>Which is the tulip?</h3>,3,html-button-response,94,2.1.0,555025,P1752273964745,true,0,,,,,,,,
6871965c7ccbcb9157f6fbcf,comprehension,stew,3,1,images/stew.jpg,images/stew.jpg,images/orchid.jpg,images/mixer.jpg,images/soup.jpg,PC,4516,<h3>Which is the stew?</h3>,0,html-button-response,95,2.1.0,559544,P1752273964745,true,0,,,,,,,,
6871965f7ccbcb9157f6fbd1,comprehension,hedgehog,3,3,images/hedgehog.jpg,images/iguana.jpg,images/owl.jpg,images/hedgehog.jpg,images/dumbwaiter.jpg,PC,2979,<h3>Which is the hedgehog?</h3>,2,html-button-response,96,2.1.0,562527,P1752273964745,true,0,,,,,,,,
687196647ccbcb9157f6fbd3,comprehension,gutter,3,3,images/gutter.jpg,images/almond.jpg,images/filter.jpg,images/gutter.jpg,images/porthole.jpg,PC,4929,<h3>Which is the gutter?</h3>,1,html-button-response,97,2.1.0,567460,P1752273964745,false,0,,,,,,,,
687196697ccbcb9157f6fbd5,comprehension,prune,3,2,images/prune.jpg,images/raisin.jpg,images/prune.jpg,images/headrest.jpg,images/jukebox.jpg,PC,5161,<h3>Which is the prune?</h3>,0,html-button-response,98,2.1.0,572624,P1752273964745,false,0,,,,,,,,
6871966e7ccbcb9157f6fbd7,comprehension,fruitcake,3,3,images/fruitcake.jpg,images/dough.jpg,images/fudge.jpg,images/fruitcake.jpg,images/anvil.jpg,PC,5232,<h3>Which is the fruitcake?</h3>,2,html-button-response,99,2.1.0,577858,P1752273964745,true,0,,,,,,,,
687196737ccbcb9157f6fbd9,comprehension,thermos,3,3,images/thermos.jpg,images/coral.jpg,images/oilcan.jpg,images/thermos.jpg,images/firewood.jpg,PC,4661,<h3>Which is the thermos?</h3>,2,html-button-response,100,2.1.0,582522,P1752273964745,true,0,,,,,,,,
687196777ccbcb9157f6fbdb,comprehension,barrel,3,1,images/barrel.jpg,images/barrel.jpg,images/anteater.jpg,images/bucket.jpg,images/shelf.jpg,PC,4448,<h3>Which is the barrel?</h3>,0,html-button-response,101,2.1.0,586971,P1752273964745,true,0,,,,,,,,
6871967c7ccbcb9157f6fbdd,comprehension,cloak,3,1,images/cloak.jpg,images/cloak.jpg,images/jellyfish.jpg,images/cinnamon.jpg,images/hood.jpg,PC,4866,<h3>Which is the cloak?</h3>,3,html-button-response,102,2.1.0,591838,P1752273964745,false,0,,,,,,,,
687196877ccbcb9157f6fbdf,comprehension,clothespin,3,1,images/clothespin.jpg,images/clothespin.jpg,images/toothpick.jpg,images/fondue.jpg,images/volleyball.jpg,PC,11048,<h3>Which is the clothespin?</h3>,2,html-button-response,103,2.1.0,602887,P1752273964745,false,0,,,,,,,,
6871968f7ccbcb9157f6fbe1,comprehension,locker,3,4,images/locker.jpg,images/cabinet.jpg,images/basket.jpg,images/gargoyle.jpg,images/locker.jpg,PC,8114,<h3>Which is the locker?</h3>,3,html-button-response,104,2.1.0,611003,P1752273964745,true,0,,,,,,,,
687196937ccbcb9157f6fbe3,comprehension,dumpling,3,3,images/dumpling.jpg,images/coyote.jpg,images/rocket.jpg,images/dumpling.jpg,images/meatball.jpg,PC,3551,<h3>Which is the dumpling?</h3>,2,html-button-response,105,2.1.0,614555,P1752273964745,true,0,,,,,,,,
6871969a7ccbcb9157f6fbe5,comprehension,mandolin,4,2,images/mandolin.jpg,images/mast.jpg,images/mandolin.jpg,images/gourd.jpg,images/seismograph.jpg,PC,7026,<h3>Which is the mandolin?</h3>,3,html-button-response,106,2.1.0,621585,P1752273964745,false,0,,,,,,,,
6871969f7ccbcb9157f6fbe7,comprehension,headdress,4,3,images/headdress.jpg,images/crown.jpg,images/mango.jpg,images/headdress.jpg,images/poster.jpg,PC,4834,<h3>Which is the headdress?</h3>,2,html-button-response,107,2.1.0,626421,P1752273964745,true,0,,,,,,,,
687196a47ccbcb9157f6fbe9,comprehension,prism,4,1,images/prism.jpg,images/prism.jpg,images/subway.jpg,images/radar.jpg,images/chinchilla.jpg,PC,4813,<h3>Which is the prism?</h3>,0,html-button-response,108,2.1.0,631237,P1752273964745,true,0,,,,,,,,
687196ac7ccbcb9157f6fbeb,comprehension,aloe,4,3,images/aloe.jpg,images/bracket.jpg,images/banner.jpg,images/aloe.jpg,images/cactus.jpg,PC,8094,<h3>Which is the aloe?</h3>,0,html-button-response,109,2.1.0,639335,P1752273964745,false,0,,,,,,,,
687196b27ccbcb9157f6fbed,comprehension,grate,4,3,images/grate.jpg,images/crate.jpg,images/reel.jpg,images/grate.jpg,images/tuba.jpg,PC,6332,<h3>Which is the grate?</h3>,1,html-button-response,110,2.1.0,645669,P1752273964745,false,0,,,,,,,,
687196b67ccbcb9157f6fbef,comprehension,hoe,4,4,images/hoe.jpg,images/beaker.jpg,images/dustpan.jpg,images/peg.jpg,images/hoe.jpg,PC,4443,<h3>Which is the hoe?</h3>,3,html-button-response,111,2.1.0,650116,P1752273964745,true,0,,,,,,,,
687196ba7ccbcb9157f6fbf1,comprehension,tapestry,4,1,images/tapestry.jpg,images/tapestry.jpg,images/forklift.jpg,images/leggings.jpg,images/backdrop.jpg,PC,3302,<h3>Which is the tapestry?</h3>,1,html-button-response,112,2.1.0,653419,P1752273964745,false,0,,,,,,,,
687196c07ccbcb9157f6fbf3,comprehension,bobsled,4,4,images/bobsled.jpg,images/cilantro.jpg,images/dip.jpg,images/sidecar.jpg,images/bobsled.jpg,PC,6045,<h3>Which is the bobsled?</h3>,2,html-button-response,113,2.1.0,659467,P1752273964745,false,0,,,,,,,,
687196c47ccbcb9157f6fbf5,comprehension,scaffolding,4,1,images/scaffolding.jpg,images/scaffolding.jpg,images/veil.jpg,images/antelope.jpg,images/satellite.jpg,PC,4396,<h3>Which is the scaffolding?</h3>,3,html-button-response,114,2.1.0,663865,P1752273964745,false,0,,,,,,,,
687196cb7ccbcb9157f6fbf7,comprehension,corset,4,3,images/corset.jpg,images/mantle.jpg,images/harness.jpg,images/corset.jpg,images/bonsai.jpg,PC,6667,<h3>Which is the corset?</h3>,1,html-button-response,115,2.1.0,670533,P1752273964745,false,0,,,,,,,,
687196cd7ccbcb9157f6fbf9,comprehension,swordfish,4,3,images/swordfish.jpg,images/leopard.jpg,images/catfish.jpg,images/swordfish.jpg,images/graffiti.jpg,PC,1897,<h3>Which is the swordfish?</h3>,1,html-button-response,116,2.1.0,672434,P1752273964745,false,0,,,,,,,,
687196d27ccbcb9157f6fbfb,comprehension,taillight,4,4,images/taillight.jpg,images/bumper.jpg,images/sushi.jpg,images/luggage.jpg,images/taillight.jpg,PC,4827,<h3>Which is the taillight?</h3>,3,html-button-response,117,2.1.0,677264,P1752273964745,true,0,,,,,,,,
687196d97ccbcb9157f6fbfd,comprehension,turbine,4,4,images/turbine.jpg,images/tab.jpg,images/pesto.jpg,images/generator.jpg,images/turbine.jpg,PC,7532,<h3>Which is the turbine?</h3>,2,html-button-response,118,2.1.0,684797,P1752273964745,false,0,,,,,,,,
687298c67ccbcb9157f6fbff,,,,,,,,,,,593361,,,survey-html-form,1,2.1.0,595171,P1752340083699,,0,5,female,yes,,,,,P005
687298d47ccbcb9157f6fc01,production,duck,0,,images/duck.jpg,,,,,PC,7651,,,survey-html-form,3,2.1.0,609173,P1752340083699,true,0,,,,bird/duck,bird/duck,duck,duck,
687298d87ccbcb9157f6fc03,production,ball,0,,images/ball.jpg,,,,,PC,3338,,,survey-html-form,4,2.1.0,612516,P1752340083699,true,0,,,,ball,ball,ball,ball,
687298de7ccbcb9157f6fc05,production,pie,1,,images/pie.jpg,,,,,PC,3834,,,survey-html-form,6,2.1.0,618537,P1752340083699,true,0,,,,pie,pie,pie,pie,
687298e47ccbcb9157f6fc07,production,otter,1,,images/otter.jpg,,,,,PC,6396,,,survey-html-form,7,2.1.0,624937,P1752340083699,true,0,,,,otter,otter,otter,otter,
687298e97ccbcb9157f6fc09,production,potato,1,,images/potato.jpg,,,,,PC,4410,,,survey-html-form,8,2.1.0,629351,P1752340083699,true,0,,,,potato,potato,potato,potato,
687298f37ccbcb9157f6fc0b,production,cheese,1,,images/cheese.jpg,,,,,PC,10395,,,survey-html-form,9,2.1.0,639750,P1752340083699,false,0,,,,idk,idk,idk,cheese,
687298f87ccbcb9157f6fc0d,production,ship,1,,images/ship.jpg,,,,,PC,5145,,,survey-html-form,10,2.1.0,644899,P1752340083699,true,0,,,,ship,ship,ship,ship,
687299007ccbcb9157f6fc0f,production,seagull,1,,images/seagull.jpg,,,,,PC,7561,,,survey-html-form,11,2.1.0,652463,P1752340083699,false,0,,,,bird,bird,bird,seagull,
687299047ccbcb9157f6fc11,production,cake,1,,images/cake.jpg,,,,,PC,4086,,,survey-html-form,12,2.1.0,656553,P1752340083699,true,0,,,,cake,cake,cake,cake,
687299087ccbcb9157f6fc13,production,turkey,1,,images/turkey.jpg,,,,,PC,4180,,,survey-html-form,13,2.1.0,660737,P1752340083699,true,0,,,,turkey,turkey,turkey,turkey,
6872990e7ccbcb9157f6fc15,production,turtle,1,,images/turtle.jpg,,,,,PC,6024,,,survey-html-form,14,2.1.0,666765,P1752340083699,true,0,,,,turtle,turtle,turtle,turtle,
6872991d7ccbcb9157f6fc17,production,freezer,1,,images/freezer.jpg,,,,,PC,14827,,,survey-html-form,15,2.1.0,681596,P1752340083699,false,0,,,,box,box,box,freezer,
